Timestamp,Accel_X,Accel_Y,Accel_Z,Gyro_Z,Compass
7.507028039544821,1.9367511504882724e-34,-2.3736167383091637e-34,9.8100004196167,0.0,3.1415927410125732
7.5174106396734715,-3526194.0,4321583.0,-2315.359130859375,0.0,3.1415927410125732
7.525732338428497,0.0,0.0,-1.629842758178711,0.0,3.1415927410125732
7.535700038075447,0.32000023126602173,0.3199997544288635,-0.8723430633544922,0.0,3.1415927410125732
7.543831739574671,2.384185791015625e-07,0.3199999928474426,1.0043754577636719,0.0,3.1415927410125732
7.55125093832612,4.76837158203125e-07,0.6399999856948853,0.45921897888183594,0.0,3.1415927410125732
7.566865138709545,0.3199999928474426,-2.384185791015625e-07,-167.72328186035156,1.886135692075186e-09,3.1415927410125732
7.573468238115311,-4.76837158203125e-07,-0.6399999856948853,247.46873474121094,-4.668361253123976e-10,3.1415927410125732
7.580041237175465,1.279999017715454,-1.280000925064087,34.70515441894531,-8.6755003181338e-10,3.1415927410125732
7.594779539853334,-0.3199999928474426,2.384185791015625e-07,-95.0679702758789,-4.734497238700897e-10,3.1415927410125732
7.60111003741622,0.6399999856948853,-4.76837158203125e-07,177.24356079101562,-4.940514664042439e-10,3.1415927410125732
7.6124777384102345,0.6400004625320435,0.639999508857727,-101.77283477783203,-3.311451113319208e-10,3.1415927410125732
7.6231435388326645,-0.6399979591369629,2.560000419616699,59.83552932739258,-3.540985282768361e-10,3.1415927410125732
7.635137937963009,0.6399990320205688,-1.2800004482269287,73.9281997680664,-1.1428852308981163e-10,3.1415927410125732
7.641582537442446,0.639999508857727,-0.6400004625320435,98.21175384521484,-1.4667711489835256e-10,3.1415927410125732
7.654528938233852,4.76837158203125e-07,0.6399999856948853,-51.0640983581543,4.039837908642596e-12,3.1415927410125732
7.663230437785387,-1.2799999713897705,9.5367431640625e-07,64.0328140258789,-7.106740196327621e-11,3.1415927410125732
7.674029439687729,0.6399979591369629,-2.560000419616699,37.3205451965332,-9.312295379260149e-11,3.1415927410125732
7.680046439170837,1.2799999713897705,-9.5367431640625e-07,52.40656280517578,7.354172826268268e-11,3.1415927410125732
7.690700739622116,2.384185791015625e-07,0.3199999928474426,14.889180183410645,9.297246306161355e-11,3.1415927410125732
7.700299236923456,-0.32000023126602173,-0.3199997544288635,14.62435531616211,6.6131766729427e-11,3.1415927410125732
7.709561936557293,-0.3199999928474426,2.384185791015625e-07,13.469023704528809,-1.3781257385270251e-11,3.1415927410125732
7.7268387377262115,-0.3199997544288635,0.32000023126602173,14.321797370910645,-7.1964101344690334e-12,3.1415927410125732
7.7352195382118225,-0.3199999928474426,2.384185791015625e-07,13.8197660446167,-4.12974099361918e-11,3.1415927410125732
7.74261673912406,-0.3199999928474426,2.384185791015625e-07,11.72281265258789,-3.080460053705991e-10,3.1415927410125732
7.755894038826227,-1.1920928955078125e-07,-0.1599999964237213,11.393281936645508,6.73280320384606e-11,3.1415927410125732
7.764536239206791,-0.3199995160102844,0.6400002241134644,11.115528106689453,-2.986713099062399e-10,3.1415927410125732
7.77281403914094,0.6399997472763062,-0.32000046968460083,10.805078506469727,-3.1478064599355093e-10,3.1415927410125732
7.781093638390303,-0.6399997472763062,0.32000046968460083,10.601484298706055,4.088662741708049e-10,3.1415927410125732
7.7967846393585205,-0.3199995160102844,0.6400002241134644,21.473751068115234,-1.6482566422837408e-09,3.1415927410125732
7.804495137184858,0.0,0.0,-0.8215227127075195,-1.5433014866061967e-09,3.1415927410125732
7.813036438077688,0.639999508857727,-0.6400004625320435,10.006582260131836,-1.4212057086737673e-09,3.1415927410125732
7.825296439230442,-4.76837158203125e-07,-0.6399999856948853,24.658477783203125,5.014655357626907e-12,3.1415927410125732
7.831494338810444,0.0,0.0,-7.532576560974121,-2.8548070574174744e-09,3.1415927410125732
7.847750637680292,0.0,0.0,23.349647521972656,-3.6116549750886406e-09,3.1415927410125732
7.856088537722826,-0.3199999928474426,2.384185791015625e-07,-2.4059371948242188,-2.256275166701016e-09,3.1415927410125732
7.862824440002441,0.0,0.0,9.709336280822754,-3.791569724853616e-09,3.1415927410125732
7.872422136366367,0.0,0.0,27.69839859008789,-3.9746539393092917e-11,3.1415927410125732
7.883977338671684,1.9199981689453125,-2.5600013732910156,3.18515682220459,-8.172174048581837e-10,3.1415927410125732
7.891955737024546,0.3199999928474426,-2.384185791015625e-07,-0.18271446228027344,-2.474855875789217e-09,3.1415927410125732
7.9041657373309135,-0.9599994421005249,0.6400007605552673,18.353809356689453,-1.889947753852539e-09,3.1415927410125732
7.913778237998486,-1.279999017715454,1.280000925064087,16.075000762939453,-2.1349597645325957e-09,3.1415927410125732
7.922366939485073,-1.9073486328125e-06,-2.559999942779541,1.6529302597045898,-1.3140581955894959e-09,3.1415927410125732
7.931761138141155,1.2799999713897705,-9.5367431640625e-07,12.610977172851562,-7.396054879649228e-10,3.1415927410125732
7.947029836475849,-4.76837158203125e-07,-0.6399999856948853,2.47812557220459,-6.992673107220071e-11,3.1415927410125732
7.952014837414026,0.6399999856948853,-4.76837158203125e-07,3.701328754425049,-6.440872279966925e-10,3.1415927410125732
7.963242337107658,1.2799980640411377,-2.5600008964538574,23.660898208618164,-1.01718145018026e-09,3.1415927410125732
7.975637137889862,0.639999508857727,-0.6400004625320435,7.021035671234131,-1.987341846643176e-09,3.1415927410125732
7.984131038188934,0.0,0.0,0.4828615188598633,-1.9137891271725493e-09,3.1415927410125732
7.990537639707327,0.639999508857727,-0.6400004625320435,9.723555564880371,-2.8092599357876225e-09,3.1415927410125732
8.001292936503887,-1.2799980640411377,2.5600008964538574,23.235918045043945,-1.2370571234043837e-09,3.1415927410125732
8.013461336493492,1.5497207641601562e-06,1.9199999570846558,2.707441806793213,2.569631840643183e-09,3.1415927410125732
8.020805437117815,0.9599994421005249,-0.6400007605552673,3.776123523712158,-3.0191031896720233e-09,3.1415927410125732
8.03225913643837,0.0,0.0,18.730684280395508,-3.0124027716738055e-09,3.1415927410125732
8.041453339159489,2.559999942779541,-1.9073486328125e-06,8.713829040527344,-1.1785017406396037e-10,3.1415927410125732
8.051630537956953,-1.2799968719482422,3.840000867843628,6.104580879211426,-2.4289401601151894e-09,3.1415927410125732
8.061669237911701,-0.6399999856948853,4.76837158203125e-07,7.896728992462158,-1.2880128075209996e-09,3.1415927410125732
8.074758239090443,0.0,0.0,9.121665954589844,-8.343219448647687e-10,3.1415927410125732
8.081210739910603,0.6399999856948853,-4.76837158203125e-07,4.622354030609131,-2.2559061285676307e-09,3.1415927410125732
8.091818436980247,0.6399984359741211,-1.920000433921814,13.715444564819336,5.044265560805172e-10,3.1415927410125732
8.100905038416386,-1.2799999713897705,9.5367431640625e-07,11.538369178771973,-1.747918698669082e-09,3.1415927410125732
8.126279536634684,-0.31999966502189636,0.4000002443790436,6.991668224334717,3.0326685607207082e-09,3.1415927410125732
8.134236138314009,1.1920928955078125e-07,0.1599999964237213,9.697586059570312,7.953246949909953e-10,3.1415927410125732
8.142475936561823,0.639999508857727,-0.6400004625320435,9.632796287536621,3.4020444239502012e-09,3.1415927410125732
8.150685340166092,-0.3199999928474426,2.384185791015625e-07,9.682127952575684,-2.5892097355040278e-09,3.1415927410125732
8.15761273726821,0.3199995160102844,-0.6400002241134644,9.842561721801758,-2.545202271164726e-09,3.1415927410125732
8.165568239986897,-0.3199999928474426,2.384185791015625e-07,9.542494773864746,-2.1052848353519948e-10,3.1415927410125732
8.1704221367836,-0.6399999856948853,4.76837158203125e-07,10.077142715454102,-1.722940345949553e-09,3.1415927410125732
8.181530438363552,-9.5367431640625e-07,-1.2799999713897705,18.66020965576172,-4.72463235201559e-10,3.1415927410125732
8.192899540066719,-0.6399999856948853,4.76837158203125e-07,4.308131217956543,-1.99103222797703e-09,3.1415927410125732
8.19955973699689,0.639999508857727,-0.6400004625320435,7.221612453460693,-3.0005313789160937e-09,3.1415927410125732
8.210237339138985,-0.6399999856948853,4.76837158203125e-07,12.80631160736084,-9.995302363563496e-10,3.1415927410125732
8.221162736415863,-1.9199981689453125,2.5600013732910156,9.12720775604248,-4.284965160472609e-10,3.1415927410125732
8.235138338059187,-4.76837158203125e-07,-0.6399999856948853,9.002789497375488,-1.4035919093657867e-09,3.1415927410125732
8.240308336913586,0.0,0.0,7.7183332443237305,-1.1769643037951028e-09,3.1415927410125732
8.253538239747286,4.76837158203125e-07,0.6399999856948853,10.955974578857422,-2.6003079689473907e-09,3.1415927410125732
8.26061013713479,4.76837158203125e-07,0.6399999856948853,8.399480819702148,1.4931044178823072e-09,3.1415927410125732
8.269787337630987,-1.279999017715454,1.280000925064087,11.892231941223145,1.6974632810473622e-09,3.1415927410125732
8.279988639056683,-1.279999017715454,1.280000925064087,9.558693885803223,-6.441979172322476e-10,3.1415927410125732
8.292661637067795,9.5367431640625e-07,1.2799999713897705,8.850645065307617,-7.608109697798682e-10,3.1415927410125732
8.303195036947727,-0.6399999856948853,4.76837158203125e-07,9.846125602722168,3.667033343646153e-11,3.1415927410125732
8.314405739307404,0.6399990320205688,-1.2800004482269287,9.471158027648926,-3.958167127393608e-11,3.1415927410125732
8.324327439069748,-1.279999017715454,1.280000925064087,9.555925369262695,7.538174529031494e-10,3.1415927410125732
8.334224339574575,0.6399990320205688,-1.2800004482269287,9.709531784057617,1.6350261144992828e-09,3.1415927410125732
8.34150643646717,0.0,0.0,8.71945858001709,-2.156556710986024e-09,3.1415927410125732
8.352053437381983,0.0,0.0,11.063447952270508,-1.8502506193840418e-09,3.1415927410125732
8.36398583650589,-1.2799994945526123,0.6400009393692017,9.255859375,6.143104913647335e-10,3.1415927410125732
8.378382537513971,-0.3199999928474426,2.384185791015625e-07,9.14795970916748,-8.831508857554127e-10,3.1415927410125732
8.384010039269924,0.0,0.0,9.919812202453613,1.1618039863492413e-11,3.1415927410125732
8.389599237591028,-1.9199984073638916,1.92000150680542,9.778437614440918,-8.78655259661798e-10,3.1415927410125732
8.40075083822012,0.0,0.0,10.721782684326172,2.90267532232491e-10,3.1415927410125732
8.410461537539959,-9.5367431640625e-07,-1.2799999713897705,9.532949447631836,1.2637579871466187e-10,3.1415927410125732
8.424450136721134,-4.76837158203125e-07,-0.6399999856948853,9.239168167114258,1.19674248288959e-09,3.1415927410125732
8.436731439083815,-1.2799994945526123,0.6400009393692017,9.78873348236084,8.499215775614744e-10,3.1415927410125732
8.441455237567425,0.6399999856948853,-4.76837158203125e-07,9.768959999084473,5.296812988220267e-10,3.1415927410125732
8.452467739582062,-1.2799999713897705,9.5367431640625e-07,10.051860809326172,-1.2218992484491764e-10,3.1415927410125732
8.46171423792839,-1.2799999713897705,9.5367431640625e-07,10.043193817138672,-1.2779555191855252e-10,3.1415927410125732
8.472129538655281,-1.2799999713897705,9.5367431640625e-07,9.5342435836792,-6.568194876876987e-10,3.1415927410125732
8.479766137897968,-1.279999017715454,1.280000925064087,9.109297752380371,-2.533720455666355e-10,3.1415927410125732
8.492333836853504,9.5367431640625e-07,1.2799999713897705,10.20087718963623,1.3258469877541756e-09,3.1415927410125732
8.522639736533165,0.12000016123056412,0.19999989867210388,9.671548843383789,-9.908176501483013e-10,3.1415927410125732
8.52755243703723,0.0,0.0,9.939787864685059,1.701982443869099e-10,3.1415927410125732
8.53270123898983,0.6400009393692017,1.2799994945526123,9.750669479370117,5.342221109927436e-10,3.1415927410125732
8.537272237241268,0.0,0.0,9.363326072692871,0.0,3.1415927410125732
8.543948739767075,-1.2799999713897705,9.5367431640625e-07,9.584453582763672,-3.164470907535133e-10,3.1415927410125732
8.554832339286804,1.279999017715454,-1.280000925064087,9.98520565032959,1.3191090442177256e-09,3.1415927410125732
8.559947539120913,9.5367431640625e-07,1.2799999713897705,9.893584251403809,5.491660459711056e-10,3.1415927410125732
8.57546103745699,0.639999508857727,-0.6400004625320435,9.77869701385498,1.1356582341193189e-11,3.1415927410125732
8.58063643798232,1.2799980640411377,-2.5600008964538574,9.875469207763672,1.0571612474308267e-09,3.1415927410125732
8.58995183929801,-0.3199999928474426,2.384185791015625e-07,9.29397964477539,-7.339293617292242e-10,3.1415927410125732
8.602536339312792,0.0,0.0,10.259443283081055,-8.183025368424524e-10,3.1415927410125732
8.61669883877039,0.959998369216919,-1.9200007915496826,9.700935363769531,-7.94393925640513e-11,3.1415927410125732
8.624056737869978,4.76837158203125e-07,0.6399999856948853,9.826140403747559,1.520299858226437e-11,3.1415927410125732
8.62953943759203,-0.6399999856948853,4.76837158203125e-07,10.068203926086426,-7.001536572737166e-10,3.1415927410125732
8.640753339976072,-1.2799999713897705,9.5367431640625e-07,10.050122261047363,-2.2927587606247357e-10,3.1415927410125732
8.651597037911415,2.559999942779541,-1.9073486328125e-06,9.792563438415527,1.0405576400529526e-09,3.1415927410125732
8.663404136896133,0.6399990320205688,-1.2800004482269287,9.690507888793945,-1.1182807457821298e-10,3.1415927410125732
8.673848539590836,-1.279999017715454,1.280000925064087,9.99061107635498,6.713081479592375e-11,3.1415927410125732
8.682858038693666,2.5599989891052246,-1.2800018787384033,9.858321189880371,9.139300427563057e-12,3.1415927410125732
8.694629438221455,0.6400004625320435,0.639999508857727,9.398179054260254,-6.848059896924497e-10,3.1415927410125732
8.702151536941528,0.639999508857727,-0.6400004625320435,9.618603706359863,1.462054921574918e-10,3.1415927410125732
8.713638138025999,-4.76837158203125e-07,-0.6399999856948853,10.15027141571045,1.943627481182375e-10,3.1415927410125732
8.721235737204552,9.5367431640625e-07,1.2799999713897705,10.237930297851562,-6.661254187134702e-11,3.1415927410125732
8.731263238936663,2.559998035430908,-2.560001850128174,9.485366821289062,1.1783281017585523e-09,3.1415927410125732
8.741587437689304,0.0,0.0,9.691289901733398,2.821322619972477e-10,3.1415927410125732
8.74982763826847,0.3199999928474426,-2.384185791015625e-07,9.305522918701172,-6.223278559147616e-10,3.1415927410125732
8.761104136705399,-0.6399999856948853,4.76837158203125e-07,10.316728591918945,-3.9279753061283174e-11,3.1415927410125732
8.770087540149689,-2.5599966049194336,3.8400018215179443,10.056289672851562,-3.2898336832509756e-11,3.1415927410125732
8.781096439808607,-0.6399984359741211,1.920000433921814,9.475200653076172,2.9521315947356186e-12,3.1415927410125732
8.793729737401009,0.639999508857727,-0.6400004625320435,9.617971420288086,2.1681748063606676e-10,3.1415927410125732
8.804591737687588,-0.6399999856948853,4.76837158203125e-07,10.039863586425781,9.413550494663525e-11,3.1415927410125732
8.81591483950615,-0.6399990320205688,1.2800004482269287,9.684287071228027,-6.579257694205864e-10,3.1415927410125732
8.823372937738895,0.31999897956848145,-1.2800002098083496,9.594466209411621,1.5620527094029057e-10,3.1415927410125732
8.836246237158775,0.3199995160102844,-0.6400002241134644,9.925026893615723,1.6537271552152788e-10,3.1415927410125732
8.841781936585903,-1.2799994945526123,0.6400009393692017,9.962530136108398,1.4628492861490372e-10,3.1415927410125732
8.852307640016079,-0.6399990320205688,1.2800004482269287,10.003012657165527,1.3684507693678682e-10,3.1415927410125732
8.86062153801322,-1.279999017715454,1.280000925064087,10.087002754211426,1.1106812691785706e-10,3.1415927410125732
8.871176939457655,1.279999017715454,-1.280000925064087,9.403609275817871,6.732291113475952e-11,3.1415927410125732
8.911739639937878,-0.07999981939792633,0.20000006258487701,9.653653144836426,1.1659914700423712e-10,3.1415927410125732
8.918390437960625,-0.1599999964237213,1.1920928955078125e-07,9.928516387939453,6.526517520866193e-11,3.1415927410125732
8.92651253938675,4.76837158203125e-07,0.6399999856948853,9.617542266845703,5.060397240130854e-11,3.1415927410125732
8.932125639170408,-0.639999508857727,0.6400004625320435,10.154839515686035,1.1847062220127214e-10,3.1415927410125732
8.93712193891406,0.6399990320205688,-1.2800004482269287,9.86814022064209,1.092490431453541e-09,3.1415927410125732
8.941555436700583,-2.5599989891052246,1.2800018787384033,9.857100486755371,1.7168849675286424e-10,3.1415927410125732
8.94815143942833,1.2800004482269287,0.6399990320205688,9.440230369567871,0.0,3.1415927410125732
8.953326638787985,-1.2799999713897705,9.5367431640625e-07,10.00162124633789,-1.0426230712123896e-10,3.1415927410125732
8.964496739208698,-0.6399979591369629,2.560000419616699,9.891040802001953,4.5320022734607335e-10,3.1415927410125732
8.973841037601233,25.600513458251953,3.8379440307617188,9.725582122802734,0.01716548576951027,3.1415927410125732
8.983419839292765,124.16815185546875,16.58539581298828,8.8002290725708,0.04340755194425583,3.1419382095336914
8.990010239183903,-37.12104034423828,-3.1688575744628906,9.725306510925293,0.05548975244164467,3.1424386501312256
9.002348937094212,106.90538787841797,13.261207580566406,9.242300987243652,0.07766804099082947,3.143284320831299
9.010564137250185,89.63172149658203,11.306129455566406,10.008648872375488,0.09179877489805222,3.144009590148926
9.019664239138365,39.689208984375,1.1509513854980469,9.62208080291748,0.1026482805609703,3.144904613494873
9.030000638216734,108.850341796875,9.765251159667969,9.369935035705566,0.1021212786436081,3.1459872722625732
9.041726138442755,96.00641632080078,-0.52850341796875,9.463571548461914,0.09782437980175018,3.147127866744995
9.0503114387393,-2.5746114253997803,-3.818877696990967,10.58894157409668,0.0998331606388092,3.1479873657226562
9.060528639703989,3.2197189331054688,1.260561466217041,9.777009963989258,0.10434959828853607,3.1490461826324463
9.07512303814292,26.91335105895996,2.3211135864257812,9.455883979797363,0.11115909367799759,3.1506426334381104
9.079976938664913,-203.06610107421875,-19.805831909179688,11.094894409179688,0.11366210877895355,3.1511921882629395
9.090801738202572,293.42779541015625,25.616424560546875,9.04494571685791,0.11858582496643066,3.152456521987915
9.102341439574957,51.92035675048828,5.128150939941406,9.761171340942383,0.12281634658575058,3.1538681983947754
9.111825339496136,129.43783569335938,9.782867431640625,9.96432876586914,0.12686294317245483,3.1550583839416504
9.121382139623165,-101.20722961425781,-6.187324523925781,10.083832740783691,0.1299489438533783,3.156290054321289
9.133038338273764,-204.77584838867188,-17.46942138671875,10.163651466369629,0.13366582989692688,3.157838821411133
9.144341439008713,320.5103454589844,25.027679443359375,9.250887870788574,0.13703981041908264,3.1593801975250244
9.153722237795591,-125.57225036621094,-6.558860778808594,10.368370056152344,0.1388513594865799,3.1606767177581787
9.166689738631248,-30.098844528198242,-1.2852554321289062,9.501720428466797,0.14248304069042206,3.16251540184021
9.171488836407661,-262.263427734375,-21.211883544921875,10.65809440612793,0.14327003061771393,3.1632049083709717
9.18152703717351,515.7957763671875,47.00189208984375,9.075788497924805,0.14553387463092804,3.164659023284912
9.19312483817339,-56.97509002685547,-0.503875732421875,9.72197151184082,0.14711809158325195,3.1663589477539062
9.202582336962223,218.07684326171875,14.78338623046875,9.837486267089844,0.14966848492622375,3.1677656173706055
9.21187013760209,-124.34465026855469,-5.5285491943359375,10.004798889160156,0.15086346864700317,3.169161081314087
9.225127939134836,-62.228050231933594,-4.55523681640625,9.429364204406738,0.15342235565185547,3.1711864471435547
9.231275539845228,-318.2735290527344,-22.92364501953125,10.45710563659668,0.15487229824066162,3.1721417903900146
9.242434337735176,442.95428466796875,34.362548828125,9.341551780700684,0.15663576126098633,3.1738836765289307
9.252431336790323,77.0738296508789,6.359428405761719,9.87082576751709,0.15784630179405212,3.1754586696624756
9.286761038005352,-136.87548828125,-8.688079833984375,9.720535278320312,0.1638818234205246,3.181004285812378
9.29124503955245,-29.55644416809082,-2.6500091552734375,10.17761516571045,0.16451172530651093,3.181741714477539
9.29661413654685,4.646913528442383,3.6579232215881348,9.657207489013672,0.16410274803638458,3.182624340057373
9.302192740142345,5.075004577636719,-1.4886229038238525,9.754289627075195,0.164017915725708,3.183537006378174
9.307681240141392,4.489013671875,-0.18694496154785156,9.795092582702637,0.1641847789287567,3.184438467025757
9.313941739499569,3.9333767890930176,1.754587173461914,9.687350273132324,0.16453906893730164,3.185469627380371
9.3231690376997,660.6825561523438,45.58697509765625,9.628511428833008,0.1654386669397354,3.1869938373565674
9.334595937281847,-138.86000061035156,-10.081192016601562,9.515606880187988,0.16593031585216522,3.188887357711792
9.344659738242626,32.864070892333984,3.5207138061523438,9.896013259887695,0.16775712370872498,3.190570831298828
9.350276738405228,-511.09197998046875,-33.412109375,10.084426879882812,0.1679285615682602,3.1915149688720703
9.360200639814138,906.8224487304688,62.11688232421875,9.124784469604492,0.16939103603363037,3.193192481994629
9.37420803681016,138.87841796875,7.89776611328125,9.679841995239258,0.15470410883426666,3.195469856262207
9.384143438190222,-390.276123046875,-33.532012939453125,10.001126289367676,0.134211927652359,3.1968491077423096
9.393277537077665,65.33212280273438,-1.1200485229492188,9.801071166992188,0.12228374928236008,3.1979899406433105
9.40656653791666,-202.8672332763672,-10.672454833984375,9.411728858947754,0.11192356050014496,3.1995038986206055
9.411954939365387,-246.37261962890625,-14.415985107421875,10.491806983947754,0.10945453494787216,3.2000951766967773
9.422099437564611,667.1919555664062,28.16046142578125,9.277440071105957,0.10629242658615112,3.2011799812316895
9.431747436523438,122.24051666259766,6.6923065185546875,9.708621978759766,0.10413700342178345,3.20218825340271
9.443022638559341,-186.49945068359375,-8.983718872070312,9.71576976776123,0.10319361835718155,3.2033534049987793
9.452735837548971,255.83502197265625,9.575714111328125,9.763701438903809,0.10266009718179703,3.2043516635894775
9.461978737264872,-148.98289489746094,-3.3202972412109375,9.966619491577148,0.10205545276403427,3.2052958011627197
9.473942939192057,-131.1466827392578,-4.9400787353515625,9.55512523651123,0.10195796936750412,3.206514358520508
9.484386038035154,41.134727478027344,1.1320648193359375,9.956278800964355,0.10206829011440277,3.20758056640625
9.49418094009161,-382.76141357421875,-11.845001220703125,9.608271598815918,0.1015976071357727,3.208575487136841
9.5055091381073,371.2799987792969,11.886871337890625,10.046768188476562,0.09535310417413712,3.209686756134033
9.511789038777351,-462.9532470703125,-15.63140869140625,10.146119117736816,0.09082087129354477,3.210257053375244
9.523172538727522,558.7410278320312,17.48095703125,9.38475513458252,0.08503150939941406,3.2112395763397217
9.532189637422562,146.2891845703125,-0.0475006103515625,9.95600414276123,0.0818890631198883,3.211984157562256
9.542407538741827,592.7832641601562,16.7470703125,8.885175704956055,0.07974043488502502,3.2128031253814697
9.55278903990984,-703.7628173828125,-15.95343017578125,10.436718940734863,0.07832399755716324,3.21362042427063
9.562325339764357,113.73469543457031,1.9773025512695312,9.80677318572998,0.0777755007147789,3.214362859725952
9.572416838258505,262.4929504394531,8.89727783203125,9.45883560180664,0.07663178443908691,3.215139150619507
9.584827739745378,-240.84906005859375,-2.56072998046875,9.715901374816895,0.07617010921239853,3.2160868644714355
9.589568439871073,-594.0969848632812,-14.49005126953125,10.657477378845215,0.07608087360858917,3.2164463996887207
9.599553037434816,785.5595703125,16.2254638671875,9.081724166870117,0.0759933739900589,3.2172062397003174
9.612387839704752,453.5099792480469,12.698455810546875,8.816824913024902,0.07607731968164444,3.2181813716888428
9.621885437518358,-411.52947998046875,-9.204254150390625,10.859786987304688,0.07530535757541656,3.218897819519043
9.63240683823824,43.158226013183594,1.7596206665039062,9.611490249633789,0.07531198114156723,3.2196896076202393
9.644381739199162,325.7685852050781,11.449371337890625,9.210894584655762,0.07482048124074936,3.220588207244873
9.653278637677431,-133.70620727539062,-2.1659393310546875,10.496683120727539,0.07407794892787933,3.2212493419647217
9.663299538195133,-168.4652862548828,-3.118988037109375,9.755699157714844,0.07389064878225327,3.221989870071411
9.67524603754282,-198.98272705078125,0.79931640625,9.712807655334473,0.07364942878484726,3.222869634628296
9.680005837231874,-535.0804443359375,-10.16363525390625,10.595580101013184,0.0733431875705719,3.223219156265259
9.690096337348223,739.1947631835938,16.04156494140625,9.081557273864746,0.07301752269268036,3.223957061767578
9.700695138424635,572.2123413085938,7.56317138671875,9.14047908782959,0.06760178506374359,3.2247071266174316
9.71164683997631,-309.3251647949219,-12.583984375,10.114404678344727,0.048605408519506454,3.225287437438965
9.720930736511946,-179.53895568847656,-11.845077514648438,10.161948204040527,0.03767241910099983,3.2256593704223633
9.731012139469385,19.24895477294922,-0.3427619934082031,9.673195838928223,0.029457898810505867,3.225975513458252
9.742660939693451,619.5216064453125,3.9449462890625,8.867283821105957,0.022945744916796684,3.2262585163116455
9.752209138125181,-537.6611328125,-8.21826171875,10.789114952087402,0.019520170986652374,3.226452112197876
9.763738337904215,-61.277732849121094,-3.12542724609375,9.614397048950195,0.016550233587622643,3.226651668548584
9.773471537977457,241.30169677734375,-2.6253662109375,9.821406364440918,0.014870740473270416,3.2267987728118896
9.782759539783001,-160.49916076660156,0.8826446533203125,9.982351303100586,0.013647126965224743,3.226928949356079
9.793525040149689,-14.237157821655273,-1.3499174118041992,10.29247760772705,0.01248863898217678,3.2270660400390625
9.80036173760891,-717.7244262695312,-2.68035888671875,10.223027229309082,0.011915268376469612,3.2271475791931152
9.809964638203382,815.5432739257812,4.478271484375,9.170616149902344,0.01125300582498312,3.227257013320923
9.821531537920237,257.8990173339844,3.514434814453125,9.506085395812988,0.010704262182116508,3.2273824214935303
9.83209753781557,-179.84751892089844,0.0694580078125,9.870448112487793,0.010144713334739208,3.2274909019470215
9.841792237013578,390.54986572265625,-0.264801025390625,9.397805213928223,0.009680360555648804,3.2275867462158203
9.851741638034582,-368.9613952636719,-2.84722900390625,10.069762229919434,0.009361346252262592,3.227680206298828
9.864282738417387,-119.52510070800781,-0.5923614501953125,9.876816749572754,0.00879627000540495,3.2277917861938477
9.874200139194727,89.35558319091797,0.6216278076171875,9.689460754394531,0.008468352258205414,3.2278761863708496
9.885354436933994,-102.2543716430664,-1.4242782592773438,9.873702049255371,0.008115150034427643,3.227968215942383
9.890317339450121,-738.2402954101562,-1.57086181640625,10.516016960144043,0.007854771800339222,3.2280075550079346
9.903219036757946,1969.8409423828125,2.611328125,7.852224826812744,0.007209883537143469,3.228102922439575
9.913650538772345,-760.9992065429688,-4.60833740234375,10.539125442504883,0.00712592015042901,3.2281787395477295
9.925030637532473,20.74518585205078,2.052083969116211,9.774538040161133,0.0062897359021008015,3.228253126144409
9.932432636618614,-878.5111694335938,-3.93585205078125,10.693011283874512,0.006478550843894482,3.2283005714416504
9.941706039011478,1027.505859375,3.1343994140625,8.755828857421875,0.006036616861820221,3.228355646133423
9.952130638062954,-42.29310989379883,1.1115837097167969,9.842348098754883,0.005850264336913824,3.22841477394104
9.961891736835241,-41.35102081298828,-2.8228225708007812,9.85080623626709,0.00529128173366189,3.228466272354126
9.973659336566925,-2.1803033351898193,-3.022562026977539,9.800198554992676,-0.011538570746779442,3.228367328643799
9.983217637985945,-25.410160064697266,-4.218416213989258,9.841797828674316,-0.019874338060617447,3.2281930446624756
9.9935431368649,-85.56568145751953,-1.5877914428710938,9.896829605102539,-0.026257440447807312,3.227935791015625
10.003957938402891,136.4855499267578,-4.0633544921875,9.659956932067871,-0.030765721574425697,3.227623462677002
10.011157438158989,-868.7572021484375,4.05224609375,10.723082542419434,-0.03356030583381653,3.2273824214935303
10.020461339503527,975.8145751953125,-6.520263671875,8.780406951904297,-0.03574018552899361,3.2270562648773193
10.031335838139057,84.72821807861328,-0.8030624389648438,9.72635555267334,-0.037150077521800995,3.226658582687378
10.041524339467287,60.170921325683594,-2.5396652221679688,9.738275527954102,-0.0385170578956604,3.226271152496338
10.051366336643696,-177.29591369628906,-0.4359283447265625,10.006129264831543,-0.039464469999074936,3.2258856296539307
10.0612126365304,412.01898193359375,-3.823699951171875,9.3619966506958,-0.03999148681759834,3.225494623184204
10.071312837302685,-106.82048034667969,-2.6219406127929688,9.938072204589844,-0.0402509868144989,3.2250895500183105
10.081162739545107,-129.67367553710938,0.52337646484375,9.938117027282715,-0.04066428914666176,3.2246906757354736
10.091869439929724,3.5200047492980957,-4.146424293518066,9.816899299621582,-0.04093235731124878,3.2242543697357178
10.104234136641026,589.9675903320312,-2.34326171875,9.173809051513672,-0.04108123481273651,3.223747491836548
10.113667137920856,-538.0721435546875,0.42596435546875,10.386359214782715,-0.041292428970336914,3.2233572006225586
10.125793538987637,-213.91285705566406,-1.2021636962890625,10.048714637756348,-0.04170616716146469,3.2228527069091797
10.132781837135553,-752.1153564453125,5.1671142578125,10.630615234375,-0.041600704193115234,3.222562313079834
10.142453037202358,915.6842651367188,-7.15863037109375,8.817164421081543,-0.04168245941400528,3.2221596240997314
10.152828939259052,483.6855773925781,-5.4591064453125,9.277242660522461,-0.04132065176963806,3.221731185913086
10.161852438002825,-1142.7703857421875,4.6680908203125,11.06109619140625,-0.04149997606873512,3.2213571071624756
10.171239737421274,1042.6728515625,-7.8170166015625,8.671586990356445,-0.04209507256746292,3.220963478088379
10.180907439440489,197.32388305664062,-5.34417724609375,9.587995529174805,-0.04171457514166832,3.2205610275268555
10.19266413897276,411.9338073730469,-2.8558349609375,9.36179256439209,-0.04572319611907005,3.220048666000366
10.202880039811134,-623.6287231445312,-3.943603515625,10.505998611450195,-0.05322208255529404,3.2195229530334473
10.212796039879322,419.2969970703125,-6.825927734375,9.347566604614258,-0.0588609017431736,3.2189512252807617
10.223055638372898,-529.035400390625,-1.697265625,10.397615432739258,-0.06262072175741196,3.2183167934417725
10.234018038958311,-38.61864471435547,-1.553955078125,9.854243278503418,-0.06548521667718887,3.2176060676574707
10.24331733956933,461.62249755859375,-6.6319580078125,9.29138469696045,-0.06684857606887817,3.2169864177703857
10.253701336681843,-247.67750549316406,0.561676025390625,10.095109939575195,-0.06784238666296005,3.216285228729248
10.263952437788248,-62.37244415283203,-1.7966842651367188,9.883966445922852,-0.06880800426006317,3.215583086013794
10.269656237214804,-1107.7823486328125,6.590576171875,11.048981666564941,-0.06895869225263596,3.2151894569396973
10.284123037010431,2686.162841796875,-25.927490234375,6.783970832824707,-0.06986667960882187,3.214182138442993
10.294753838330507,-1430.1217041015625,10.5400390625,11.427727699279785,-0.06890933215618134,3.213449478149414
10.300388738512993,-1164.562744140625,8.9381103515625,11.127372741699219,-0.06903421878814697,3.2130608558654785
10.310119837522507,1234.2662353515625,-11.8099365234375,8.407609939575195,-0.06999990344047546,3.2123806476593018
10.319665737450123,125.77035522460938,0.145172119140625,9.672586441040039,-0.06927985697984695,3.211719274520874
10.330526638776064,193.62449645996094,-1.9087982177734375,9.593682289123535,-0.0693291649222374,3.210965871810913
10.340097337961197,702.6075439453125,-7.29925537109375,9.01082992553711,-0.0690695121884346,3.210304021835327
10.350088339298964,-801.7923583984375,0.73895263671875,10.719624519348145,-0.06867211312055588,3.2096173763275146
10.36145193874836,-187.26351928710938,0.4210205078125,10.029708862304688,-0.06879747658967972,3.208836793899536
10.370565138757229,307.38153076171875,-7.682342529296875,9.452611923217773,-0.0683298408985138,3.2082130908966064
10.38015253841877,47.35246276855469,-1.8482246398925781,9.763550758361816,-0.06788825988769531,3.207561731338501
10.390103738754988,-101.64488983154297,-4.902862548828125,9.91955280303955,-0.07140868902206421,3.206869125366211
10.401637338101864,1041.9527587890625,-13.346923828125,8.6069974899292,-0.07509732991456985,3.206012725830078
10.411883037537336,-1100.156494140625,4.6903076171875,11.088456153869629,-0.07695932686328888,3.205230236053467
10.42514793947339,-261.91741943359375,0.379425048828125,10.114211082458496,-0.0799887552857399,3.2041783332824707
10.434140037745237,340.1506042480469,-5.68365478515625,9.413054466247559,-0.08045428991317749,3.2034566402435303
10.445333737879992,-233.4905548095703,-1.782257080078125,10.086257934570312,-0.08097285777330399,3.2025504112243652
10.455247137695551,-731.5546264648438,5.267822265625,10.663092613220215,-0.0808279737830162,3.201749801635742
10.459765739738941,3.167379856109619,-0.8340694904327393,9.809136390686035,-0.08081656694412231,3.2013838291168213
10.472820237278938,2908.1123046875,-20.9931640625,6.396005630493164,-0.0807514563202858,3.200329065322876
10.482067838311195,-1307.54736328125,4.1162109375,11.346329689025879,-0.07975556701421738,3.1995904445648193
10.491587840020657,290.9740905761719,-1.299468994140625,9.47219181060791,-0.07382405549287796,3.198859930038452
10.501559939235449,244.60691833496094,-4.87493896484375,9.518895149230957,-0.072572723031044,3.1981377601623535
10.513967536389828,1100.747802734375,-8.7510986328125,8.502532958984375,-0.0729808509349823,3.1972341537475586
10.5238491371274,-1259.9141845703125,3.88232421875,11.309402465820312,-0.07301384210586548,3.1965134143829346
10.534154240041971,-121.96443176269531,-3.6459808349609375,9.952949523925781,-0.07366558909416199,3.1957547664642334
10.539800837635994,-1419.2193603515625,7.765869140625,11.494023323059082,-0.07396408915519714,3.195338010787964
10.550895236432552,1312.0439453125,-9.9051513671875,8.248875617980957,-0.07379330694675446,3.1945173740386963
10.560282338410616,369.0841064453125,-1.357574462890625,9.372978210449219,-0.07278124243021011,3.1938345432281494
10.570260737091303,-175.64291381835938,-1.20440673828125,10.025252342224121,-0.07685329765081406,3.193087339401245
10.584779437631369,-461.6510314941406,0.838043212890625,10.356531143188477,-0.07816480100154877,3.191955089569092
10.593771237879992,331.726318359375,-4.3150634765625,9.41152572631836,-0.07845824211835861,3.1912527084350586
10.604075439274311,549.538818359375,-5.0823974609375,9.156270027160645,-0.07864591479301453,3.190439224243164
10.612461537122726,-1517.2430419921875,7.1754150390625,11.629179954528809,-0.07815944403409958,3.1897854804992676
10.621724139899015,1466.87548828125,-8.1724853515625,8.049997329711914,-0.0784054845571518,3.1890573501586914
10.630991339683533,-6.800010681152344,-8.655312538146973,9.807485580444336,-0.07739021629095078,3.1883397102355957
10.640759740024805,-80.77833557128906,-1.411285400390625,9.914779663085938,-0.07721011340618134,3.1875860691070557
10.650373939424753,509.6826477050781,-6.4273681640625,9.19383430480957,-0.07675983011722565,3.186847686767578
10.660051938146353,-411.2583923339844,0.378326416015625,10.302582740783691,-0.07609045505523682,3.1861090660095215
10.674802336841822,-615.9208374023438,0.1593017578125,10.555960655212402,-0.07553528249263763,3.184992790222168
10.684417638927698,427.1581726074219,-2.87091064453125,9.288607597351074,-0.07501277327537537,3.1842710971832275
10.694115336984396,408.34808349609375,-8.17742919921875,9.32290267944336,-0.07446985691785812,3.183547019958496
10.704538837075233,20.527145385742188,0.4315032958984375,9.777865409851074,-0.07365062832832336,3.1827781200408936
10.714394938200712,-254.27423095703125,0.04229736328125,10.125984191894531,-0.0730133131146431,3.1820566654205322
10.724429439753294,-15.539390563964844,-4.510013580322266,9.819425582885742,-0.07268944382667542,3.1813266277313232
10.73677783831954,-239.6642303466797,-3.51483154296875,10.106468200683594,-0.08044654875993729,3.180372953414917
10.741315737366676,-1136.6240234375,5.2572021484375,11.192041397094727,-0.07936473935842514,3.180011510848999
10.75103173777461,2147.55419921875,-14.314697265625,7.191365718841553,-0.07759076356887817,3.179252862930298
10.761122938245535,-225.8958282470703,4.49224853515625,10.082783699035645,-0.07517851144075394,3.1784915924072266
10.772200137376785,-198.62814331054688,-3.081878662109375,10.053349494934082,-0.07391972094774246,3.1776697635650635
10.781601339578629,678.7112426757812,-3.5408935546875,8.973782539367676,-0.07261320948600769,3.1769840717315674
10.792120236903429,-112.87068939208984,-5.0579376220703125,9.950910568237305,-0.0710497498512268,3.176231622695923
10.80385883897543,1417.5888671875,-5.6915283203125,8.056983947753906,-0.07015659660100937,3.175405979156494
10.813595838844776,-1635.3883056640625,1.7066650390625,11.833261489868164,-0.06875822693109512,3.174734592437744
10.827136639505625,-488.8894348144531,-0.255828857421875,10.407106399536133,-0.06803055107593536,3.173809766769409
10.831631038337946,-935.4496459960938,1.6866455078125,10.968132972717285,-0.0674210637807846,3.173508405685425
10.840936239808798,2060.28466796875,-8.1513671875,7.265868186950684,-0.06651675701141357,3.1728861331939697
10.850880239158869,280.4747619628906,0.362823486328125,9.453635215759277,-0.06508039683103561,3.1722354888916016
10.860915638506413,85.65667724609375,-5.135002136230469,9.706892013549805,-0.0645826905965805,3.171586513519287
10.870128739625216,-102.38116455078125,1.7270050048828125,9.944404602050781,-0.06391788274049759,3.1709964275360107
10.880138639360666,1163.7862548828125,-7.88525390625,8.345056533813477,-0.06323447823524475,3.17036509513855
10.889732837677002,-781.018310546875,2.79913330078125,10.78644847869873,-0.06188612058758736,3.1697685718536377
10.903798539191484,1673.3609619140625,-8.58740234375,7.7274932861328125,-0.06086760386824608,3.1689047813415527
10.913503337651491,-1662.0648193359375,-1.6546630859375,11.876483917236328,-0.059265799820423126,3.1683268547058105
10.924602437764406,-326.51019287109375,-0.44927978515625,10.224916458129883,-0.05886952579021454,3.1676721572875977
10.92964793741703,-1933.906005859375,6.3419189453125,12.23264217376709,-0.05822570249438286,3.1673779487609863
10.943832136690617,4193.00341796875,-12.53076171875,4.539681911468506,-0.05753043666481972,3.166562795639038
10.953407939523458,-2862.82958984375,3.715576171875,13.41169548034668,-0.05524946376681328,3.166031837463379
10.962466437369585,1556.217529296875,-3.3277587890625,7.849798202514648,-0.05572480708360672,3.1655242443084717
10.972274839878082,86.99848175048828,-3.319854736328125,9.699711799621582,-0.05458392575383186,3.164987564086914
10.98272093757987,355.876220703125,-3.008056640625,9.358198165893555,-0.05430931597948074,3.1644227504730225
10.991461638361216,-154.94329833984375,-1.6601409912109375,10.003236770629883,-0.05388998985290527,3.1639504432678223
11.000691939145327,47.361026763916016,-1.0391960144042969,9.757674217224121,-0.053544506430625916,3.163454532623291
11.010892439633608,-129.4291534423828,-6.205718994140625,9.967727661132812,-0.05305655673146248,3.1629133224487305
11.02266063913703,-161.32569885253906,-1.1445465087890625,10.008852005004883,-0.05263490602374077,3.162292003631592
11.031593438237906,-0.013499975204467773,-1.2835184335708618,9.816934585571289,-0.0456918366253376,3.161858320236206
11.041825138032436,99.858154296875,-0.7003707885742188,9.68139934539795,-0.04554321989417076,3.1613881587982178
11.054359838366508,1185.4171142578125,-4.874267578125,8.291910171508789,-0.04550480842590332,3.1608197689056396
11.064067538827658,-1061.37646484375,-4.38330078125,11.170735359191895,-0.045025236904621124,3.160383939743042
11.073914136737585,122.91871643066406,0.30188751220703125,9.653233528137207,-0.045079588890075684,3.1599345207214355
11.083652537316084,-103.69662475585938,-0.7063522338867188,9.944148063659668,-0.04462270066142082,3.1595003604888916
11.092359438538551,-3.8717200756073,-2.495851755142212,9.81869888305664,-0.044329073280096054,3.1591134071350098
11.102366037666798,267.5370178222656,-2.013671875,9.463557243347168,-0.04394257813692093,3.1586759090423584
11.112562138587236,376.30145263671875,-4.984771728515625,9.317850112915039,-0.04355655983090401,3.1582305431365967
11.121814738959074,-624.75244140625,-2.66064453125,10.623384475708008,-0.04341772943735123,3.1578242778778076
11.132129237055779,-49.921356201171875,-0.4951820373535156,9.870343208312988,-0.04336890950798988,3.157381057739258
11.141923539340496,161.27346801757812,-2.4817657470703125,9.606014251708984,-0.042982202023267746,3.1569602489471436
11.151638738811016,943.4195556640625,-3.8692626953125,8.588875770568848,-0.0426434762775898,3.1565475463867188
11.161770839244127,-839.7454833984375,0.67041015625,10.897886276245117,-0.04245450347661972,3.1561148166656494
11.174902338534594,-608.0438232421875,0.23626708984375,10.595990180969238,-0.03373720496892929,3.155672788619995
11.179582636803389,-1333.2264404296875,0.634765625,11.538605690002441,-0.03370298445224762,3.1555111408233643
11.189714539796114,3120.936279296875,-0.138427734375,5.768404483795166,-0.03376543149352074,3.1551730632781982
11.200080636888742,-15.396769523620605,-3.6395225524902344,9.834209442138672,-0.03312302380800247,3.1548261642456055
11.209559340029955,-247.105712890625,-4.4912109375,10.124285697937012,-0.033350519835948944,3.1545069217681885
11.22394374012947,1484.9033203125,-1.8333740234375,7.885281085968018,-0.03337114304304123,3.154031991958618
11.234408538788557,-1804.924560546875,-0.577880859375,12.153932571411133,-0.033093590289354324,3.153682231903076
11.239875737577677,-1850.353515625,0.2745361328125,12.209456443786621,-0.03331765532493591,3.15350341796875
11.254251539707184,3753.177978515625,-3.22509765625,4.9350266456604,-0.03338996320962906,3.153017997741699
11.264304339885712,-1745.3997802734375,-2.3873291015625,12.080951690673828,-0.0327349491417408,3.1526899337768555
11.27324653789401,-1505.6883544921875,-1.3382568359375,11.765252113342285,-0.0334344357252121,3.1523959636688232
11.28348083794117,1762.648681640625,-1.7984619140625,7.515993595123291,-0.03351277858018875,3.152048349380493
11.293471436947584,-242.59957885742188,-3.9356842041015625,10.128265380859375,-0.024883804842829704,3.151759147644043
11.299742437899113,-1888.07666015625,0.3448486328125,12.262025833129883,-0.024927964434027672,3.1516056060791016
11.313872538506985,4484.67431640625,-2.3740234375,3.972043037414551,-0.02494685910642147,3.151254177093506
11.3240185379982,-2633.733154296875,-3.36767578125,13.234696388244629,-0.02436596155166626,3.151010513305664
11.334415137767792,152.33798217773438,-0.11737060546875,9.619163513183594,-0.024962278082966805,3.1507537364959717
11.344304040074348,-55.676368713378906,-0.7864189147949219,9.878125190734863,-0.024740654975175858,3.150496482849121
11.354033339768648,304.6521301269531,-1.363983154296875,9.410196304321289,-0.024763286113739014,3.15026593208313
11.362360939383507,-1969.9918212890625,-1.88720703125,12.382967948913574,-0.02470991760492325,3.150050163269043
11.371976338326931,2183.7744140625,1.23779296875,6.955676555633545,-0.02503269910812378,3.1498215198516846
11.381909739226103,-190.75201416015625,-4.880645751953125,10.0649995803833,-0.024736599996685982,3.149564027786255
11.391875736415386,115.1993637084961,-2.1729507446289062,9.657316207885742,-0.025082025676965714,3.14931321144104
11.400981239974499,509.43804931640625,-3.82366943359375,9.151700973510742,-0.025169020518660545,3.1490938663482666
11.41082963719964,-785.95068359375,-3.2628173828125,10.835660934448242,-0.02531571313738823,3.1488351821899414
11.424567136913538,-703.03173828125,1.7174072265625,10.738062858581543,-0.018306000158190727,3.148592472076416
11.433438636362553,863.3868408203125,-0.7860107421875,8.692242622375488,-0.01799694634974003,3.1484286785125732
11.442810337990522,-29.443622589111328,-2.365877151489258,9.859273910522461,-0.017845937982201576,3.148252010345459
11.453450437635183,-98.56170654296875,-1.9234542846679688,9.946558952331543,-0.017812812700867653,3.1480705738067627
11.463190238922834,1091.8543701171875,-3.0489501953125,8.420502662658691,-0.01780741848051548,3.1478934288024902
11.473144337534904,-806.4029541015625,-0.17926025390625,10.860881805419922,-0.01785385049879551,3.1477110385894775
11.483225639909506,-216.3262939453125,-2.555389404296875,10.096884727478027,-0.018074728548526764,3.147542953491211
11.492400337010622,519.70556640625,0.81915283203125,9.170166015625,-0.012132033705711365,3.147390842437744
11.502550538629293,-293.1026306152344,1.66864013671875,10.197193145751953,-0.010285601019859314,3.1472976207733154
11.51133093982935,-160.02102661132812,-5.503082275390625,10.019935607910156,-0.009066354483366013,3.147202730178833
11.521425940096378,896.04736328125,3.99908447265625,8.750604629516602,-0.007921981625258923,3.147127866744995
11.533021036535501,-495.98724365234375,1.422454833984375,10.419706344604492,-0.006882894318550825,3.147041082382202
11.542300939559937,-263.6640625,1.43463134765625,10.13382339477539,-0.000392468529753387,3.1470301151275635
11.551395136862993,-1839.0643310546875,-1.82421875,11.95315933227539,6.376468263624702e-06,3.1470301151275635
11.562337338924408,1852.845458984375,1.4241943359375,7.711029529571533,0.00014401615771930665,3.147041082382202
11.570913936942816,-486.39508056640625,0.089691162109375,10.360994338989258,0.0003438607382122427,3.147041082382202
11.580461639910936,887.0653686523438,0.28173828125,8.85684871673584,0.00020112314086873084,3.147052049636841
11.590982537716627,-108.78038024902344,1.8721466064453125,9.958312034606934,3.849892527796328e-05,3.147052049636841
11.602152939885855,1103.4027099609375,2.9442138671875,8.697503089904785,-0.0003892426611855626,3.147041082382202
11.61541923880577,-1550.1121826171875,-3.727783203125,11.375027656555176,-0.0008713359129615128,3.147041082382202
11.620695639401674,-1611.531005859375,0.4371337890625,11.384047508239746,-0.0011036694049835205,3.147019147872925
11.633167039602995,3907.916015625,1.891845703125,6.154134750366211,-0.002106545027345419,3.147008180618286
11.645231738686562,-1083.5255126953125,0.0740966796875,10.805244445800781,-0.0022807158529758453,3.146975040435791
11.650194738060236,-2589.474609375,-1.45361328125,12.098709106445312,-0.0028953503351658583,3.1469528675079346
11.66199253872037,6078.83203125,3.462890625,4.713758945465088,-0.004009821452200413,3.1469192504882812
11.671501338481903,-1963.564208984375,-4.966552734375,11.401215553283691,-0.0031066297087818384,3.146885633468628
11.682511039078236,-26.857805252075195,2.7002620697021484,9.870955467224121,-0.0030571885872632265,3.1468517780303955
11.693969637155533,535.0671997070312,2.321044921875,9.437271118164062,-0.0025404177140444517,3.146829128265381
11.707432437688112,-2129.953125,-2.374267578125,11.273025512695312,-0.0024805995635688305,3.1467833518981934
11.7116690389812,-1144.9637451171875,0.81494140625,10.541031837463379,-0.002678866032510996,3.1467833518981934
11.721431139856577,4897.35205078125,0.34326171875,6.792169570922852,-0.0028037549927830696,3.1467487812042236
11.730937637388706,-1337.6083984375,0.462890625,10.598087310791016,-0.002729241270571947,3.146713972091675
11.741612438112497,360.9744567871094,0.71978759765625,9.638652801513672,-0.003509026952087879,3.146690607070923
11.753890737891197,-264.9637756347656,-1.22314453125,9.966039657592773,-0.003922224510461092,3.146631956100464
11.765363439917564,-296.9573974609375,0.203521728515625,9.938898086547852,-0.004536094609647989,3.1465842723846436
11.769538838416338,-2537.005859375,-4.009521484375,10.860034942626953,-0.004749570041894913,3.1465604305267334
11.784965239465237,5377.35693359375,1.83740234375,7.937587738037109,-0.00579878082498908,3.1465001106262207
11.798827338963747,-2619.87353515625,-1.470947265625,10.591299057006836,-0.005818786099553108,3.146414279937744
11.804832737892866,-783.999755859375,1.215087890625,9.991841316223145,0.00046538934111595154,3.146414279937744
11.809790939092636,-1.2890044450759888,-2.5545592308044434,9.802886962890625,-0.00017818457854446024,3.146401882171631
11.822844237089157,6322.00390625,1.609375,8.640262603759766,-0.0008393375319428742,3.146401882171631
11.832597237080336,-4174.4619140625,-3.34765625,10.418074607849121,-0.0013401260366663337,3.1463894844055176
11.84399763867259,1740.178466796875,-0.6190185546875,9.644384384155273,-0.002337745623663068,3.146364450454712
11.849962338805199,-2308.5009765625,0.73681640625,9.94018268585205,-0.0022678945679217577,3.1463520526885986
11.861623838543892,1131.5267333984375,-1.5059814453125,9.815934181213379,-0.0029635389801114798,3.1463143825531006
11.871992137283087,543.3695678710938,0.6512451171875,9.825114250183105,-0.003487491514533758,3.1462888717651367
11.88069123774767,1185.291259765625,-0.3983154296875,9.893786430358887,-0.004061256069689989,3.1462507247924805
11.894420139491558,1358.0828857421875,-2.3970947265625,10.022177696228027,-0.004914663266390562,3.146186351776123
11.904807839542627,-2270.09814453125,1.33544921875,9.392148971557617,-0.0055732084438204765,3.1461341381073
11.91062193736434,-1878.4251708984375,-1.14794921875,9.403499603271484,-0.00618352834135294,3.146094560623169
11.926449339836836,2604.821044921875,-0.552978515625,10.558208465576172,-0.007330926600843668,3.1459872722625732
11.93157883733511,-2768.02587890625,0.52490234375,8.943344116210938,-0.007306390441954136,3.145946502685547
11.941638737916946,3847.718505859375,1.479736328125,11.160634994506836,-0.008165830746293068,3.1458775997161865
11.951004639267921,-1143.0487060546875,0.954345703125,9.347864151000977,-0.00837505143135786,3.1457931995391846
11.962219938635826,536.312255859375,-2.1951904296875,10.052779197692871,-0.009416662156581879,3.1456780433654785
11.971452038735151,-526.0947265625,-1.73394775390625,9.539571762084961,-0.009163613431155682,3.145604372024536
11.980870738625526,290.5688171386719,2.698883056640625,9.947972297668457,-0.008342746645212173,3.1455295085906982
11.990743439644575,-431.38079833984375,-3.460968017578125,9.567351341247559,-0.007601192221045494,3.145437479019165
12.00006153807044,1820.1707763671875,0.7978515625,10.858522415161133,-0.007143241353332996,3.1453750133514404
12.009894739836454,-1711.38134765625,-1.326416015625,8.74052906036377,-0.006700619123876095,3.1453113555908203
12.020014639943838,385.2811279296875,1.154815673828125,10.057223320007324,-0.006673067808151245,3.145230531692505
12.03212683647871,-488.3408203125,-3.37860107421875,9.468647956848145,-0.006398932076990604,3.1451475620269775
12.040864437818527,-147.20069885253906,1.7963104248046875,9.66606330871582,-0.0063811601139605045,3.145097017288208
12.050689339637756,-1663.059326171875,-0.984375,8.58294677734375,-0.00640909606590867,3.1450281143188477
12.061156637966633,1809.923828125,0.2833251953125,11.193098068237305,-0.006761837285012007,3.1449756622314453
12.069870237261057,-565.776611328125,-1.9627685546875,9.336708068847656,-0.006837621796876192,3.1449224948883057
12.083507437258959,-568.9684448242188,0.551513671875,9.343317985534668,-0.00735123036429286,3.144813299179077
12.09410323947668,885.7535400390625,-0.8612060546875,10.55274486541748,-0.0077406964264810085,3.1447384357452393
12.102506037801504,-304.650390625,-0.344757080078125,9.517398834228516,-0.008050591684877872,3.1446421146392822
12.11242763698101,1157.125244140625,2.9398193359375,10.865294456481934,-0.008406262844800949,3.144582986831665
12.12297073751688,-1326.7408447265625,-2.5550537109375,8.55836296081543,-0.00873534195125103,3.1445021629333496
12.132166039198637,-15.375908851623535,-2.5174617767333984,9.782437324523926,-0.009315275587141514,3.144397735595703
12.141863036900759,503.02886962890625,-1.369781494140625,10.294015884399414,-0.009677940048277378,3.1443114280700684
12.154052436351776,-216.9717559814453,-0.7166748046875,9.590943336486816,-0.010152499191462994,3.144176483154297
12.160782236605883,-1802.2490234375,2.15234375,7.969673156738281,0.0022604481782764196,3.1442222595214844
12.171379439532757,2926.08251953125,1.24951171875,12.828157424926758,0.0015637698816135526,3.1441996097564697
12.18202043697238,-645.1272583007812,1.70654296875,9.117508888244629,0.0008173874230124056,3.1442222595214844
12.191571436822414,874.2299194335938,-1.0341796875,10.730327606201172,-0.0002451808541081846,3.144244909286499
12.201571639627218,-129.28631591796875,1.62054443359375,9.670523643493652,-0.0011693740962073207,3.1442222595214844
12.213478937745094,-194.58299255371094,-4.6118621826171875,9.57059097290039,-0.0022545394022017717,3.1441996097564697
12.222841337323189,-844.8072509765625,2.18511962890625,8.845561981201172,-0.00304974801838398,3.144153356552124
12.237609136849642,-876.4954833984375,-0.98248291015625,8.808195114135742,-0.004150401800870895,3.144129991531372
12.243036836385727,-755.21435546875,-0.6678466796875,8.944403648376465,-0.004563881549984217,3.144082546234131
12.252149738371372,3678.717529296875,-0.089111328125,14.028522491455078,-0.00517403706908226,3.1440341472625732
12.26151703670621,-1177.6221923828125,-3.5634765625,8.423912048339844,-0.005382616072893143,3.143984794616699
12.27269783988595,817.9149169921875,1.9268798828125,10.766733169555664,-0.006548809818923473,3.143908977508545
12.283866338431835,-746.9004516601562,-3.43115234375,8.910694122314453,-0.006984482519328594,3.143857002258301
12.293176136910915,459.50439453125,-2.288055419921875,10.342507362365723,-0.007630715612322092,3.1437764167785645
12.302446138113737,-565.7697143554688,1.1983642578125,9.122936248779297,-0.008001093752682209,3.143692970275879
12.313497237861156,-698.8895263671875,1.4151611328125,8.973332405090332,-0.008613447658717632,3.143605947494507
12.321559939533472,-1145.6134033203125,-0.322998046875,8.430388450622559,-0.009045257233083248,3.1435458660125732
12.331360638141632,1898.2310791015625,0.30859375,12.090270042419434,-0.009578423574566841,3.1434521675109863
12.340365037322044,71.66361999511719,-2.6877822875976562,9.88448715209961,-0.009744621813297272,3.1433534622192383
12.355242639780045,1144.94189453125,-4.4151611328125,11.194685935974121,-0.01063417736440897,3.1431751251220703
12.36176923662424,-3020.809326171875,2.759521484375,6.132513999938965,-0.010770781897008419,3.143136978149414
12.372986238449812,1461.1055908203125,-2.077880859375,11.58826732635498,-0.01168045587837696,3.1430163383483887
12.380922436714172,215.02601623535156,-1.5734710693359375,10.070660591125488,-0.0073474314995110035,3.142930030822754
12.390993040055037,318.7109069824219,2.14654541015625,10.198287963867188,-0.0063545978628098965,3.1428847312927246
12.402052637189627,-334.734619140625,-2.14837646484375,9.395304679870605,-0.005604933016002178,3.142788887023926
12.41160823777318,485.1073303222656,-0.573516845703125,10.406476974487305,-0.005179311614483595,3.142788887023926
12.425846237689257,-1041.9320068359375,-0.1214599609375,8.517658233642578,-0.0047034514136612415,3.1426846981048584
12.430594839155674,-798.7310180664062,0.87017822265625,8.8207368850708,-0.004739383235573769,3.1426286697387695
12.440690036863089,4432.6240234375,-3.345703125,15.28380012512207,-0.004581917077302933,3.1426286697387695
12.450025737285614,-1899.5333251953125,-1.93359375,7.461832046508789,-0.004118540324270725,3.1425693035125732
12.460184339433908,181.74769592285156,-0.1744842529296875,10.026407241821289,-0.004702114965766668,3.1425063610076904
12.470844440162182,-368.6539611816406,-2.22625732421875,9.341912269592285,-0.004774820990860462,3.1425063610076904
12.479638040065765,-32.00986862182617,2.5871238708496094,9.773905754089355,-0.005047754384577274,3.1424386501312256
12.495189636945724,1391.345458984375,-2.4058837890625,11.529121398925781,-0.000632906798273325,3.1424386501312256
12.500355739146471,-3104.012939453125,-2.6259765625,5.965275764465332,-0.0010909263510257006,3.1424386501312256
12.509706038981676,2225.904541015625,-3.028564453125,12.568563461303711,-0.0021862846333533525,3.1422834396362305
12.519567538052797,993.267822265625,0.52606201171875,11.035496711730957,-0.002701164223253727,3.1422834396362305
12.52972773835063,-1249.2955322265625,-5.49267578125,8.260214805603027,-0.003337559988722205,3.1422834396362305
12.541856937110424,76.14779663085938,-0.05193328857421875,9.901893615722656,-0.004317356739193201,3.1422834396362305
12.551682438701391,767.9863891601562,-1.76495361328125,10.759200096130371,-0.0047360979951918125,3.142190933227539
12.564739536494017,-1045.1312255859375,0.5882568359375,8.514739036560059,-0.005378797650337219,3.1420810222625732
12.569977939128876,-1286.4105224609375,1.9656982421875,8.22310733795166,-0.005678774788975716,3.142190933227539
12.584198139607906,3779.823974609375,-2.9501953125,14.470843315124512,-0.006762494798749685,3.1419382095336914
12.594588838517666,-1978.8914794921875,-1.829345703125,7.367795467376709,-0.0068918135948479176,3.1419382095336914
12.604827638715506,-354.5724182128906,-1.815032958984375,9.377618789672852,-0.007149958983063698,3.1419382095336914
12.610026936978102,-1254.4110107421875,0.3243408203125,8.261420249938965,-0.007363568991422653,3.1415927410125732
12.619586937129498,1546.2264404296875,-2.848876953125,11.70659351348877,-0.007665335200726986,3.1419382095336914
12.632613837718964,754.5474853515625,1.21734619140625,10.72977352142334,-0.008142565377056599,3.1415927410125732
12.6412332393229,-144.65159606933594,5.129180908203125,9.630986213684082,-0.0016219312092289329,3.1415927410125732
12.651230439543724,-433.9317932128906,-1.2564697265625,9.281651496887207,-0.0009799374965950847,3.1415927410125732
12.661937236785889,-1261.1309814453125,1.021240234375,8.27072811126709,-0.0004959027282893658,3.1415927410125732
12.672472137957811,970.2271118164062,-0.04473876953125,10.989532470703125,-0.00017976383969653398,3.1415927410125732
12.680565036833286,247.02783203125,-0.0115509033203125,10.105878829956055,-5.4908101446926594e-05,3.1415927410125732
12.689889639616013,40.94790267944336,-2.56207275390625,9.860221862792969,-9.163530194200575e-05,3.1415927410125732
12.70189493894577,-291.8517150878906,0.652252197265625,9.454120635986328,-0.0002170335064874962,3.1415927410125732
12.712212137877941,468.4676513671875,-1.298248291015625,10.373541831970215,-0.0004338993167039007,3.1415927410125732
12.720981739461422,-554.2515258789062,-2.54168701171875,9.149070739746094,-0.0005945198354311287,3.1415927410125732
12.73073023930192,153.58798217773438,-1.28411865234375,9.994253158569336,-0.0009048084612004459,3.1415927410125732
12.742623940110207,561.9077758789062,-0.00701904296875,10.484025955200195,-0.001221759826876223,3.1415927410125732
12.752977937459946,240.62799072265625,0.00054931640625,10.10395622253418,-0.0015551566611975431,3.1415927410125732
12.76716423779726,-1251.8509521484375,0.6005859375,8.311527252197266,-0.002126090694218874,3.1415927410125732
12.772133838385344,-606.7313842773438,0.6131591796875,9.088059425354004,-0.0024521348532289267,3.1415927410125732
12.780869238078594,2833.906005859375,0.192138671875,13.196439743041992,-0.00283257314004004,3.1415927410125732
12.790830738842487,-663.0509643554688,-3.90338134765625,9.01677417755127,-0.002853446640074253,3.1415927410125732
12.804632436484098,1047.0274658203125,-1.1268310546875,11.060324668884277,-0.0038647353649139404,3.1415927410125732
12.809535939246416,-2954.249755859375,-0.491455078125,6.288022518157959,-0.004100330639630556,3.1415927410125732
12.82341593876481,2987.506103515625,-0.593505859375,13.36072826385498,-0.004791079554706812,3.1415927410125732
12.829759139567614,-2634.250732421875,3.798828125,6.679932117462158,-0.004556846804916859,3.141247272491455
12.83996943756938,1250.547607421875,-0.8924560546875,11.29029655456543,-0.005102724768221378,3.1415927410125732
12.85597873851657,622.0678100585938,0.24609375,10.537171363830566,-0.0056123496033251286,3.141247272491455
12.861507836729288,-1839.371337890625,1.772216796875,7.645451545715332,-0.005782744847238064,3.141247272491455
12.870765637606382,3025.908935546875,-4.937744140625,13.363236427307129,-0.006038907915353775,3.141247272491455
12.880774538964033,-1351.693115234375,4.3846435546875,8.226003646850586,-0.006067895330488682,3.1409945487976074
12.890413839370012,-1072.3306884765625,-0.6541748046875,8.557910919189453,-0.006821811199188232,3.1411044597625732
12.900808338075876,1186.5491943359375,-1.7490234375,11.1929292678833,-0.0072465259581804276,3.140902042388916
12.909647237509489,232.94920349121094,-1.106048583984375,10.075974464416504,-0.007268655113875866,3.1408205032348633
12.923403039574623,1881.59326171875,-6.0772705078125,11.981428146362305,-0.007594248279929161,3.1408205032348633
12.933444939553738,-1402.8900146484375,-1.3038330078125,8.202330589294434,-0.007690006401389837,3.140679121017456
12.942068438977003,-967.6941528320312,2.8740234375,8.686057090759277,-0.008155684918165207,3.140556812286377
12.952841736376286,-69.12992095947266,-1.3556442260742188,9.733577728271484,-0.008407309651374817,3.140556812286377
12.964168839156628,39.67237091064453,-3.1534423828125,9.854400634765625,-0.00862950924783945,3.1403965950012207
12.973055437207222,-390.4123840332031,0.7864990234375,9.364312171936035,-0.008771125227212906,3.140347719192505
12.982992138713598,313.58990478515625,-0.856414794921875,10.17021369934082,-0.00906736683100462,3.1402554512023926
12.993496436625719,-216.97271728515625,0.9781494140625,9.562414169311523,0.0008077314705587924,3.1402554512023926
13.002041339874268,1090.546875,1.50634765625,11.054634094238281,0.0009365249425172806,3.1402554512023926
13.011946339160204,-802.56640625,-3.6617431640625,8.897860527038574,0.0009654616005718708,3.1402554512023926
13.021862838417292,-240.65086364746094,-0.3285064697265625,9.543449401855469,0.0007323992904275656,3.1402554512023926
13.029613137245178,-1079.6893310546875,-1.4681396484375,8.578929901123047,0.0006709604640491307,3.1402554512023926
13.040482439100742,1106.5496826171875,-0.4210205078125,11.066303253173828,0.00039283509249798954,3.140211582183838
13.050171736627817,-234.2490692138672,-1.5966796875,9.544698715209961,0.00035571519401855767,3.140211582183838
13.06491393968463,1177.5887451171875,0.3092041015625,11.134865760803223,-3.759651372092776e-05,3.140211582183838
13.07040773704648,-2303.37109375,-0.55078125,7.215085029602051,-0.00010391781688667834,3.1402554512023926
13.080323938280344,2823.673095703125,-2.568359375,12.990171432495117,-0.0008000583620741963,3.140211582183838
13.094297837466002,-1362.571533203125,0.058837890625,8.275728225708008,-0.0006588198593817651,3.140211582183838
13.104552239179611,328.94842529296875,0.45330810546875,10.179511070251465,-0.0013406026409938931,3.140211582183838
13.11350403726101,-323.8522644042969,0.82879638671875,9.445066452026367,-0.001686955918557942,3.140211582183838
13.126730136573315,-248.3310546875,-0.0324249267578125,9.533516883850098,-0.002033273922279477,3.140169143676758
13.131200436502695,-554.253662109375,1.7684326171875,9.195453643798828,-0.0021651231218129396,3.140211582183838
13.14207323640585,1646.0736083984375,-2.7254638671875,11.625768661499023,-0.0025436014402657747,3.140169143676758
13.151480738073587,235.5086212158203,0.3481597900390625,10.088786125183105,-0.002529294230043888,3.140087604522705
13.162069339305162,-245.7685546875,-1.650970458984375,9.529779434204102,-0.0029827733524143696,3.140087604522705
13.170910339802504,888.3074340820312,1.36590576171875,10.79392147064209,-0.003315968904644251,3.140087604522705
13.181022338569164,-1054.7227783203125,-5.4990234375,8.64830207824707,-0.003556351875886321,3.1400485038757324
13.189679637551308,-1110.731689453125,0.1341552734375,8.591259956359863,-0.0039979261346161366,3.140010356903076
13.200355239212513,948.4671630859375,1.5677490234375,10.848487854003906,-0.004316756036132574,3.1399731636047363
13.218594439327717,19.51137924194336,-1.2463665008544922,9.8300199508667,-0.004591673146933317,3.139866352081299
13.224195837974548,-951.6964721679688,2.8033447265625,8.772599220275879,-0.004788164980709553,3.139832019805908
13.233801636844873,1443.832763671875,-1.226318359375,11.37870979309082,-0.005134989973157644,3.139798641204834
13.24609873816371,-543.374267578125,1.54095458984375,9.219403266906738,-0.005302985664457083,3.1397016048431396
13.250808138400316,-676.4891357421875,-1.28643798828125,9.081001281738281,-0.005543575156480074,3.1396703720092773
13.260787338018417,2343.68115234375,-4.37060546875,12.33030891418457,-0.005765814334154129,3.1396396160125732
13.270409937947989,-874.2485961914062,-1.7606201171875,8.87221908569336,-0.00570237822830677,3.1396093368530273
13.281331937760115,51.18921661376953,0.1061859130859375,9.861881256103516,-0.006213612388819456,3.1395211219787598
13.292105939239264,-236.17405700683594,1.4125213623046875,9.55513858795166,-0.00636166799813509,3.1394643783569336
13.301832936704159,427.51666259765625,-2.895172119140625,10.256060600280762,-0.006593771744519472,3.1393818855285645
13.315676137804985,-588.178955078125,3.124755859375,9.185858726501465,-0.006777255330234766,3.1392765045166016
13.320704739540815,-561.9346923828125,1.24542236328125,9.22335147857666,-0.00696196686476469,3.1392509937286377
13.33065353706479,1631.9871826171875,2.65234375,11.518148422241211,-0.0071643381379544735,3.1391758918762207
13.343533638864756,-593.9330444335938,0.43438720703125,9.182845115661621,-0.007093419786542654,3.1391029357910156
13.35451503843069,335.99493408203125,-1.692047119140625,10.160433769226074,-0.00764450104907155,3.1390321254730225
13.362898539751768,-392.97894287109375,2.798553466796875,9.399335861206055,-0.007822045125067234,3.138963222503662
13.372955538332462,375.0386047363281,-2.816741943359375,10.196242332458496,-0.007980365306138992,3.138852119445801
13.38382463902235,-88.329833984375,-0.249176025390625,9.714430809020996,-0.008065654896199703,3.1387877464294434
13.3932546377182,225.2761688232422,-1.908233642578125,10.039292335510254,-0.008292078971862793,3.138683319091797
13.405926737934351,-463.3736267089844,0.52880859375,9.341235160827637,-0.008393993601202965,3.138582706451416
13.411526139825583,-703.3762817382812,1.053955078125,9.10659408569336,-0.00877808965742588,3.1385433673858643
13.420542240142822,1393.9105224609375,1.687255859375,11.205543518066406,0.003138449043035507,3.1385433673858643
13.431009538471699,-102.42450714111328,4.8205718994140625,9.708405494689941,0.0139534380286932,3.1386630535125732
13.43983493745327,-934.4130249023438,0.00372314453125,8.878580093383789,0.021315166726708412,3.138874053955078
13.450609639286995,865.9022216796875,4.058837890625,10.669575691223145,0.026966553181409836,3.1391513347625732
13.459934938699007,299.50360107421875,3.22271728515625,10.093544960021973,0.030060753226280212,3.139409065246582
13.469527538865805,-1117.76220703125,-4.7498779296875,8.719134330749512,0.026051290333271027,3.1396703720092773
13.484277836978436,1640.9403076171875,7.47705078125,11.401200294494629,0.036465272307395935,3.1401278972625732
13.489627238363028,-2337.27880859375,-9.43310546875,7.5477681159973145,0.025613468140363693,3.140300750732422
13.502917937934399,622.0654907226562,5.08306884765625,10.403375625610352,0.01300108339637518,3.1406161785125732
13.513446237891912,232.30825805664062,3.34423828125,10.027006149291992,0.017984820529818535,3.1411044597625732
13.51967654004693,-993.2874145507812,-6.66156005859375,8.871450424194336,0.05608057975769043,3.1415927410125732
13.532377537339926,479.99139404296875,3.69390869140625,10.259004592895508,0.06198791041970253,3.1419382095336914
13.54340873658657,346.8722839355469,2.9923095703125,10.1322021484375,0.04766073822975159,3.142190933227539
13.552501738071442,-199.6892852783203,0.1734466552734375,9.628337860107422,0.0384206585586071,3.1424386501312256
13.565756238996983,-199.0526580810547,-2.28021240234375,9.624519348144531,0.05873960629105568,3.1429738998413086
13.57100323960185,-539.5286254882812,0.7718505859375,9.31886100769043,0.005560731049627066,3.1430163383483887
13.58042723685503,1283.837158203125,2.94091796875,10.98619556427002,0.013657192699611187,3.1432485580444336
13.594143938273191,-528.3258666992188,2.2325439453125,9.325055122375488,-0.007612516637891531,3.1433868408203125
13.604885637760162,215.03028869628906,-0.44171142578125,10.0098237991333,0.008817039430141449,3.1436643600463867
13.609533738344908,-830.7412109375,-4.514404296875,9.055434226989746,0.04469939321279526,3.1438302993774414
13.623509537428617,2293.791748046875,13.279296875,11.869613647460938,0.015219798311591148,3.144176483154297
13.633493836969137,-1150.7530517578125,-6.9710693359375,8.77971076965332,0.010551142506301403,3.144418954849243
13.64385573938489,14.06696605682373,-1.3225650787353516,9.820069313049316,0.007265808526426554,3.144700288772583
13.656847838312387,-284.1673583984375,0.922607421875,9.559794425964355,-0.013835105113685131,3.144813299179077
13.662241537123919,-538.9077758789062,-4.51544189453125,9.341958999633789,0.04684561863541603,3.145097017288208
13.672683637589216,1143.0655517578125,7.27197265625,10.804283142089844,0.042452987283468246,3.1453113555908203
13.682404439896345,-289.3016357421875,-2.691925048828125,9.554848670959473,0.04029637575149536,3.1455445289611816
13.69087753817439,-660.4959716796875,-0.70709228515625,9.23602294921875,-0.022718263790011406,3.1453750133514404
13.701408836990595,986.2493286132812,2.28204345703125,10.466135025024414,0.02527473308146,3.1457645893096924
13.711979240179062,-244.50279235839844,-2.7588043212890625,9.194745063781738,0.022466694936156273,3.146014451980591
13.7246217392385,224.00115966796875,1.511505126953125,9.677536964416504,0.020612923428416252,3.146263599395752
13.730148538947105,-1200.0501708984375,-5.765625,9.505380630493164,0.01994769461452961,3.1463894844055176
13.744236838072538,1689.66650390625,10.6474609375,11.192131042480469,0.018581366166472435,3.14664363861084
13.752674337476492,-1335.7362060546875,-5.83447265625,8.374698638916016,0.01800612546503544,3.1467947959899902
13.763682939112186,700.16845703125,1.3353271484375,10.789182662963867,0.01726960577070713,3.1469972133636475
13.7733205370605,5.125631332397461,2.532121181488037,10.01615047454834,0.016702866181731224,3.1471493244171143
13.782376736402512,-724.1885986328125,-1.62115478515625,8.650130271911621,0.01611439883708954,3.1472976207733154
13.793736636638641,545.2880859375,1.26751708984375,10.754532814025879,0.015531234443187714,3.1474926471710205
13.803207337856293,17.903535842895508,-1.3875656127929688,10.054533004760742,0.015085133723914623,3.147622585296631
13.815658837556839,-226.56332397460938,1.4093170166015625,9.203974723815918,0.014473837800323963,3.1478171348571777
13.821800339967012,-423.06793212890625,-1.811767578125,9.632607460021973,0.014214050024747849,3.1478934288024902
13.830432638525963,1043.2354736328125,3.5367431640625,11.146122932434082,0.013882162980735302,3.148015260696411
13.839877236634493,-52.469947814941406,2.9043655395507812,9.581827163696289,0.013481362722814083,3.148143768310547
13.849803939461708,-230.4026336669922,1.54071044921875,9.491544723510742,0.013060186989605427,3.1482789516448975
13.86280893906951,248.30215454101562,-2.3406524658203125,9.56493091583252,0.012573028914630413,3.1484460830688477
13.872412137687206,300.8555908203125,8.144195556640625,10.640049934387207,0.012206550687551498,3.148566961288452
13.88240583986044,-500.4931945800781,0.9873046875,9.373661994934082,0.011785509996116161,3.1486854553222656
13.891051437705755,-734.7770385742188,-4.32012939453125,8.66511344909668,0.011394640430808067,3.148777484893799
13.900958139449358,1113.6551513671875,4.6756591796875,11.37824821472168,0.01101490668952465,3.1488845348358154
13.910498939454556,-577.3190307617188,-2.12054443359375,9.405442237854004,0.013672524131834507,3.1489980220794678
13.924595139920712,487.8087158203125,15.3734130859375,9.094655990600586,0.03700236603617668,3.1494357585906982
13.933243837207556,-563.19970703125,3.3878173828125,10.70858097076416,0.05563198775053024,3.149879217147827
13.943249337375164,-88.21979522705078,12.317909240722656,9.479381561279297,0.07885673642158508,3.15061616897583
13.954018339514732,322.7156066894531,14.69500732421875,9.903040885925293,0.09482531249523163,3.1515936851501465
13.959949139505625,-1062.7000732421875,-22.014892578125,8.862401962280273,0.10048238933086395,3.1521897315979004
13.974481239914894,1343.2979736328125,39.9849853515625,11.123567581176758,0.11048252135515213,3.1537609100341797
13.983540937304497,-1057.414794921875,-27.004150390625,8.339841842651367,0.11390465497970581,3.154790163040161
13.993839036673307,587.2161254882812,19.72650146484375,10.920136451721191,0.11521461606025696,3.1559619903564453
14.003117639571428,-204.8420867919922,-0.6711883544921875,9.664268493652344,0.11511282622814178,3.1570377349853516
14.017276838421822,-175.14132690429688,-4.04766845703125,9.022089958190918,0.11382518708705902,3.158651351928711
14.022780038416386,-256.8223876953125,-7.614349365234375,10.1521635055542,0.1129428893327713,3.1592793464660645
14.031990438699722,1251.6025390625,44.4315185546875,11.155550003051758,0.11144330352544785,3.1603076457977295
14.041618037968874,-385.59112548828125,-11.575164794921875,9.353328704833984,0.10916277021169662,3.1613609790802
14.052055537700653,-158.8259735107422,-3.0764923095703125,9.490105628967285,0.10817215591669083,3.162492513656616
14.064368236809969,80.69847106933594,2.0527572631835938,9.629400253295898,0.10600222647190094,3.1638059616088867
14.069713238626719,-693.1817016601562,-22.61676025390625,9.455658912658691,0.1048848032951355,3.164365291595459
14.083554338663816,1345.4576416015625,44.250244140625,11.090771675109863,0.10309083759784698,3.165801525115967
14.09374563768506,-720.1710205078125,-22.7896728515625,8.999018669128418,0.10062173008918762,3.1668310165405273
14.104612939059734,59.66097640991211,4.835361480712891,9.77369499206543,0.0997789055109024,3.1679177284240723
14.113484837114811,-192.21438598632812,-5.0100860595703125,9.808587074279785,0.09819133579730988,3.168793201446533
14.121892139315605,-380.0228576660156,-12.396148681640625,9.028024673461914,0.09684167057275772,3.169607162475586
14.132575638592243,522.2833251953125,16.20751953125,10.653881072998047,0.09526761621236801,3.1706271171569824
14.141732439398766,-165.32083129882812,-4.0158233642578125,9.788357734680176,0.09392212331295013,3.1714930534362793
14.155299738049507,-119.82756805419922,-2.66558837890625,9.17997932434082,0.092027947306633,3.1727466583251953
14.160732239484787,-283.3122863769531,-8.956024169921875,10.058813095092773,0.0911136046051979,3.1732401847839355
14.170737139880657,865.3682250976562,28.17596435546875,10.567610740661621,0.08966989070177078,3.1741411685943604
14.184207938611507,-401.2707214355469,-11.750701904296875,8.924180030822754,0.08736863732337952,3.1753246784210205
14.190038736909628,-214.14537048339844,-7.3905487060546875,10.108635902404785,0.08706138283014297,3.1758317947387695
14.203855738043785,1059.19384765625,35.4708251953125,10.932404518127441,0.08535932749509811,3.1770176887512207
14.21741333976388,-590.2058715820312,-18.756103515625,8.667885780334473,0.08323044329881668,3.1781539916992188
14.223985638469458,-212.175537109375,-4.9293365478515625,9.996095657348633,0.08310101926326752,3.178699493408203
14.232451640069485,488.67950439453125,17.38348388671875,10.604358673095703,0.08226044476032257,3.179401397705078
14.24608863890171,-142.4263458251953,-5.982696533203125,9.029193878173828,0.0801224559545517,3.180497169494629
14.251024138182402,-270.5820007324219,-7.292755126953125,10.107799530029297,0.07953651994466782,3.1808922290802
14.26020983979106,1093.9805908203125,31.7744140625,10.854262351989746,0.07870326191186905,3.181615114212036
14.270364940166473,-314.2325439453125,-8.9461669921875,9.352377891540527,0.07691221684217453,3.182398557662964
14.280399739742279,87.11830139160156,0.2212371826171875,9.824623107910156,0.07622885704040527,3.183168649673462
14.29105393961072,-194.98773193359375,-5.8227386474609375,9.540035247802734,0.07509312778711319,3.1839711666107178
14.300312738865614,88.61773681640625,5.151329040527344,10.022991180419922,0.07400156557559967,3.1846578121185303
14.314652338624,469.5993347167969,15.150970458984375,8.68494701385498,0.07217478007078171,3.185697317123413
14.319752138108015,-1110.91845703125,-30.002197265625,10.339056015014648,0.07144230604171753,3.186060905456543
14.333841938525438,1284.3131103515625,37.662353515625,10.916686058044434,0.07070524245500565,3.1870620250701904
14.343627236783504,-874.4371948242188,-25.61541748046875,8.404963493347168,0.06824767589569092,3.1877310276031494
14.353715438395739,386.86865234375,11.3438720703125,10.842582702636719,0.06829804927110672,3.188422441482544
14.362415038049221,83.40398406982422,2.450927734375,9.999709129333496,0.06720246374607086,3.189007043838501
14.371737137436867,-496.91107177734375,-13.5948486328125,8.64688777923584,0.06646757572889328,3.189626693725586
14.38202553987503,353.58673095703125,10.956146240234375,10.713194847106934,0.06585735827684402,3.1903083324432373
14.390520837157965,94.97753143310547,3.0072555541992188,10.068136215209961,0.06494048982858658,3.1908609867095947
14.399837236851454,-466.71685791015625,-10.669158935546875,8.645018577575684,0.06401925534009933,3.191457748413086
14.410037338733673,386.3013000488281,10.58935546875,10.766939163208008,0.06340738385915756,3.1921064853668213
14.423130236566067,347.796630859375,9.046539306640625,10.222476959228516,0.062358394265174866,3.1929283142089844
14.433000039309263,-337.5202331542969,-8.086151123046875,9.265567779541016,0.06139538437128067,3.193535804748535
14.443609036505222,-95.06531524658203,-3.9676666259765625,9.588750839233398,0.0606115497648716,3.194180488586426
14.45237273722887,-49.990962982177734,0.09494400024414062,9.932233810424805,0.05983772873878479,3.1947073936462402
14.46220413967967,-301.7452392578125,-9.4193115234375,8.882232666015625,0.05877281725406647,3.195284605026245
14.472847137600183,585.3148803710938,14.32733154296875,10.932059288024902,0.0581512451171875,3.1959052085876465
14.482145637273788,-451.5716857910156,-5.972869873046875,9.5902738571167,0.057335905730724335,3.196439504623413
14.496863439679146,-89.76847839355469,-6.2321624755859375,9.077607154846191,0.03538104519248009,3.1970643997192383
14.500898540019989,-190.1484832763672,-7.3691558837890625,10.49765396118164,0.025533493608236313,3.1971676349639893
14.511332139372826,910.806884765625,10.64642333984375,10.340373992919922,0.02340095303952694,3.19740629196167
14.524666838347912,-359.1329650878906,-2.87957763671875,9.074402809143066,0.028414953500032425,3.197772741317749
14.534245736896992,125.74034118652344,1.8661651611328125,10.446105003356934,0.030159590765833855,3.1980576515197754
14.54090903699398,-417.6795349121094,-6.43414306640625,9.134390830993652,0.03054148145020008,3.198261022567749
14.549629736691713,404.0708923339844,3.891357421875,10.49953556060791,0.030825838446617126,3.19852876663208
14.560001939535141,74.6994400024414,5.974510192871094,9.618426322937012,0.030722184106707573,3.1988472938537598
14.571702037006617,69.22159576416016,-0.14678955078125,9.610040664672852,0.03051176853477955,3.1992056369781494
14.58110923692584,-209.18421936035156,-3.26141357421875,9.924470901489258,0.030185271054506302,3.199491500854492
14.593076840043068,-5.829486846923828,-0.9427852630615234,9.504796028137207,0.029773294925689697,3.199847936630249
14.603778637945652,148.81982421875,1.53057861328125,10.081583976745605,0.02927008830010891,3.200162410736084
14.613649636507034,-218.77035522460938,-2.496337890625,9.68709659576416,0.028916507959365845,3.2004477977752686
14.621402639895678,-255.97714233398438,-2.8114013671875,9.331742286682129,0.028679389506578445,3.2006702423095703
14.631979037076235,299.7155456542969,5.26202392578125,10.319435119628906,0.028360238298773766,3.200972318649292
14.640811439603567,84.8589859008789,3.9086837768554688,10.070317268371582,0.030102405697107315,3.201230049133301
14.650797139853239,-351.8519287109375,-2.8822021484375,8.790419578552246,0.04342936351895332,3.201664447784424
14.661079436540604,311.4920959472656,8.6612548828125,10.785174369812012,0.058662232011556625,3.2022247314453125
14.670876637101173,-85.36805725097656,9.089950561523438,9.714731216430664,0.07557820528745651,3.2029221057891846
14.6839633397758,-50.904170989990234,6.397026062011719,9.376019477844238,0.10147182643413544,3.204164981842041
14.693868737667799,100.33853149414062,14.763908386230469,10.32075023651123,0.11960165947675705,3.2053050994873047
14.702816139906645,48.25117492675781,12.261665344238281,9.922481536865234,0.12961426377296448,3.2064454555511475
14.712111439555883,-383.9529724121094,-20.441986083984375,8.808528900146484,0.13381163775920868,3.2076900005340576
14.72297703847289,323.6965637207031,24.92236328125,10.63131332397461,0.1365443915128708,3.2091732025146484
14.732228238135576,-83.7120590209961,-4.4871673583984375,9.860918045043945,0.1370498389005661,3.210444450378418
14.746696040034294,-122.36363220214844,-6.39483642578125,9.023977279663086,0.1344750076532364,3.212399959564209
14.751539640128613,-151.02780151367188,-12.282424926757812,10.37641716003418,0.13585683703422546,3.2130582332611084
14.760460536926985,720.15576171875,55.39263916015625,10.579172134399414,0.13365869224071503,3.214249610900879
14.769916139543056,-237.62237548828125,-19.62420654296875,9.427865028381348,0.13135124742984772,3.2154951095581055
14.781175039708614,-28.91545867919922,-0.3793010711669922,9.509488105773926,0.13064691424369812,3.2169675827026367
14.792086139321327,-9.968918800354004,3.980799674987793,9.815157890319824,0.12917566299438477,3.2183806896209717
14.800051037222147,-36.23369216918945,-3.5902557373046875,10.069955825805664,0.1271940916776657,3.2193973064422607
14.809921737760305,110.07305145263672,11.828872680664062,9.61495304107666,0.12571994960308075,3.220641851425171
14.82200163975358,-113.92699432373047,-11.346351623535156,9.442548751831055,0.1239667683839798,3.2221410274505615
14.832610938698053,92.56950378417969,9.105888366699219,10.072983741760254,0.12262840569019318,3.223442554473877
14.841449838131666,-32.106605529785156,0.1030426025390625,9.987552642822266,0.12068886309862137,3.224510908126831
14.851498939096928,38.79762649536133,3.1546058654785156,9.626899719238281,0.11939337849617004,3.2257118225097656
14.862885139882565,-32.21528244018555,-1.0911674499511719,9.6013765335083,0.11832929402589798,3.2270541191101074
14.872462838888168,42.85204315185547,5.277614593505859,10.077322006225586,0.11620276421308517,3.2281641960144043
14.887285239994526,-177.53912353515625,-13.195388793945312,9.064009666442871,0.11647031456232071,3.22987699508667
14.89336033910513,-151.38992309570312,-11.552261352539062,10.256026268005371,0.11218611150979996,3.2305591106414795
14.903853736817837,454.0193176269531,32.222442626953125,10.218201637268066,0.110944002866745,3.2317347526550293
14.912926636636257,-219.96316528320312,-15.883651733398438,9.745621681213379,0.10961279273033142,3.232734203338623
14.920438937842846,-214.64260864257812,-13.62152099609375,9.283519744873047,0.11100124567747116,3.2335681915283203
14.931568536907434,242.06878662109375,17.876220703125,10.204520225524902,0.10856854170560837,3.234773874282837
14.939703039824963,14.734573364257812,6.32620906829834,10.146300315856934,0.1060928925871849,3.235637903213501
14.949771739542484,-0.36876559257507324,-3.8205721378326416,9.526226043701172,0.10529063642024994,3.236696243286133
14.96211913973093,-71.57664489746094,-2.0794448852539062,9.463102340698242,0.10485342144966125,3.2379844188690186
14.972218338400126,112.81964111328125,9.553031921386719,10.210321426391602,0.10240893810987473,3.2390143871307373
14.981444638222456,-66.35130310058594,-7.600120544433594,9.83316707611084,0.1007901206612587,3.23994517326355
14.991052240133286,13.36731243133545,5.101081848144531,9.731603622436523,0.09959422051906586,3.240898847579956
15.001150239259005,-34.9030876159668,-1.6322898864746094,9.699708938598633,0.09838981181383133,3.241889715194702
15.011246137320995,327.9997863769531,24.5689697265625,9.759997367858887,0.09648345410823822,3.2428576946258545
15.021144237369299,-304.45831298828125,-20.241363525390625,9.883771896362305,0.09550929069519043,3.2437996864318848
15.031413037329912,-27.5321044921875,-4.869489669799805,9.745171546936035,0.09482870250940323,3.244767189025879
15.042776137590408,24.84986114501953,3.836181640625,9.659271240234375,0.09339117258787155,3.2458207607269287
15.051840338855982,27.130279541015625,1.0012264251708984,10.155609130859375,0.09169536083936691,3.246649980545044
15.061376437544823,-96.08773040771484,-7.8043212890625,9.664621353149414,0.09103821218013763,3.2475154399871826
15.073043938726187,-31.163293838500977,-2.4463424682617188,9.541951179504395,0.09029664099216461,3.2485618591308594
15.084006737917662,3.384159564971924,1.5649964809417725,9.91937255859375,0.0887414962053299,3.2495288848876953
15.09310033917427,-49.19022750854492,-2.3557357788085938,9.969395637512207,0.0872514471411705,3.250319480895996
15.10241223871708,-174.5247344970703,-12.04010009765625,9.145979881286621,0.08264890313148499,3.251089572906494
15.112476639449596,209.12652587890625,10.240615844726562,10.860807418823242,0.12736651301383972,3.2522878646850586
15.121663238853216,-88.64556121826172,-9.349754333496094,10.110454559326172,0.147335946559906,3.253610134124756
15.134995140135288,-126.68927001953125,-9.325897216796875,9.275861740112305,0.14921148121356964,3.2556257247924805
15.140357438474894,-123.15115356445312,-6.430816650390625,10.064167022705078,0.12156623601913452,3.256277561187744
15.150644037872553,114.92293548583984,2.1165924072265625,11.06881046295166,0.0786634311079979,3.2571911811828613
15.163932636380196,-132.5129852294922,-3.544219970703125,9.01167106628418,0.0359138548374176,3.2577850818634033
15.174569837749004,-35.00706100463867,-1.7097663879394531,10.476438522338867,0.017513468861579895,3.257995128631592
15.18351873755455,-71.80261993408203,3.2370223999023438,10.133463859558105,9.500103624304757e-05,3.2579996585845947
15.192869536578655,-1.4324754476547241,-1.125435471534729,8.981022834777832,1.9068298570346087e-05,3.258000135421753
15.203347239643335,2.455159902572632,-0.9359035491943359,9.02405834197998,1.3013812349527143e-05,3.258000612258911
15.212420038878918,0.9593477249145508,-2.694535255432129,9.798127174377441,6.881184617668623e-06,3.2579996585845947
15.226594239473343,0.9032113552093506,-0.43213868141174316,8.720444679260254,3.3168412301165517e-06,3.258000135421753
15.231780037283897,-0.5024243593215942,1.342395544052124,10.277445793151855,2.6467458269507915e-07,3.258000135421753
15.241354338824749,-1.1371546983718872,1.4169648885726929,9.773043632507324,-2.3558654902444687e-06,3.258000135421753
15.251545939594507,-0.9878387451171875,2.6884751319885254,9.537238121032715,-4.267122676537838e-06,3.258000612258911
15.26026263833046,-0.5002111196517944,1.3429607152938843,9.343547821044922,-5.8817440731218085e-06,3.258000612258911
15.270846638828516,0.47311854362487793,-1.3484902381896973,10.166723251342773,-6.746260623913258e-06,3.258000135421753
15.279536437243223,-0.9871599674224854,2.6886863708496094,9.942008018493652,-7.018326869001612e-06,3.258000135421753
15.294819839298725,0.9644744396209717,-2.693243980407715,7.687009811401367,-8.41868586576311e-06,3.258000135421753
15.300089839845896,2.0824551582336426,-4.114175796508789,11.737828254699707,-8.154624083545059e-06,3.258000135421753
15.314095538109541,0.2863585948944092,2.5405008792877197,9.662837028503418,-8.083199645625427e-06,3.258000612258911
15.3234275393188,-0.19594168663024902,-1.591168999671936,9.331306457519531,-9.477336789132096e-06,3.258000612258911
15.334253437817097,1.7478054761886597,-1.4964133501052856,10.270328521728516,-8.29507644084515e-06,3.258000612258911
15.342831138521433,-3.675199508666992,1.715392827987671,10.035734176635742,-7.530039511038922e-06,3.258000612258911
15.353983938694,-0.28964388370513916,0.35323235392570496,9.701656341552734,-7.81649214331992e-06,3.258000612258911
15.364476837217808,0.5528360605239868,-0.7116769552230835,9.725028038024902,-7.449047188856639e-06,3.258000135421753
15.373250037431717,-0.008321345783770084,-0.0016421927139163017,9.989166259765625,-6.924768513272284e-06,3.258000135421753
15.38785843923688,-1.0348303318023682,-0.5255544185638428,9.13210678100586,-7.991856364242267e-06,3.2579996585845947
15.392468638718128,-0.6438037157058716,0.07272231578826904,10.620981216430664,-6.759876669093501e-06,3.2579996585845947
15.402865637093782,-1.1296122074127197,1.4186257123947144,9.601568222045898,-6.134757313702721e-06,3.2579996585845947
15.41146993637085,-0.1553483009338379,-1.2726694345474243,9.982004165649414,-5.772572876594495e-06,3.2579996585845947
15.421108938753605,2.2392218112945557,-2.8412282466888428,9.668941497802734,-5.568898359342711e-06,3.258000135421753
15.433049339801073,-1.2769124507904053,0.14754557609558105,9.438298225402832,-5.521285856957547e-06,3.2579996585845947
15.441817738115788,2.2394227981567383,-2.8411943912506104,10.305209159851074,-4.8399365368823055e-06,3.2579996585845947
15.451675437390804,0.1435633897781372,1.2703052759170532,9.635496139526367,-4.735214133688714e-06,3.2579996585845947
15.461521539837122,1.2664421796798706,-0.1496586799621582,9.797797203063965,-4.512588475336088e-06,3.2579996585845947
15.472372639924288,0.21845757961273193,1.9060795307159424,9.696481704711914,-4.469843133847462e-06,3.258000135421753
15.481199439615011,-0.3017847537994385,-2.5435876846313477,10.028816223144531,-4.0235163396573626e-06,3.258000135421753
15.491170939058065,2.538627862930298,-0.29816269874572754,9.667024612426758,-3.2671005101292394e-06,3.258000135421753
15.503695037215948,1.267684817314148,-0.14942169189453125,9.419880867004395,-3.1683885026723146e-06,3.258000135421753
15.512419037520885,-0.15258586406707764,-1.2721517086029053,10.412383079528809,-2.7056087219534675e-06,3.258000135421753
15.522111039608717,-2.2487313747406006,2.839296579360962,9.750823020935059,-2.645566610226524e-06,3.2579996585845947
15.53232603892684,1.268165111541748,-0.14933204650878906,9.716069221496582,-2.5693825591588393e-06,3.258000135421753
15.540314838290215,-0.5643046498298645,0.7093756794929504,9.543697357177734,-2.7791611501015723e-06,3.258000135421753
15.550479337573051,0.632693350315094,-0.07496345043182373,10.175093650817871,-2.3200177565740887e-06,3.258000135421753
15.559534039348364,1.119771957397461,-1.420617699623108,9.91805362701416,-2.0962047528882977e-06,3.258000135421753
15.574879437685013,-0.9187960624694824,0.4288058876991272,9.74141788482666,-1.971809524548007e-06,3.258000135421753
15.580893136560917,0.6332958936691284,-0.07484322786331177,9.748059272766113,-1.987752057175385e-06,3.258000135421753
15.591424237936735,1.1201599836349487,-1.4205433130264282,10.319319725036621,-1.8115439814891943e-08,3.258000135421753
15.601051937788725,2.391676664352417,-1.5691665410995483,9.797658920288086,-4.6472862891278055e-07,3.258000135421753
15.611139737069607,2.540426731109619,-0.2978086471557617,9.70215129852295,-6.916114330124401e-07,3.258000135421753
15.621227540075779,1.5664769411087036,2.393547296524048,9.750011444091797,-8.478937729705649e-07,3.258000135421753
15.630614336580038,-0.5967769622802734,-5.085792541503906,9.73292064666748,-9.132785976362356e-07,3.258000135421753
15.640287838876247,-0.002089832676574588,-0.00043718249071389437,9.808984756469727,-1.0129710972250905e-06,3.258000135421753
15.650642238557339,1.269397258758545,-0.14906799793243408,9.713568687438965,-1.0723845207394334e-06,3.258000135421753
15.661584939807653,-1.124551773071289,1.4196140766143799,9.669575691223145,-1.1042350251955213e-06,3.258000135421753
15.670929238200188,0.9721348285675049,-2.691725254058838,10.038857460021973,-1.0897646234298008e-06,3.258000135421753
15.68522583693266,-1.7598204612731934,1.494032382965088,8.764920234680176,-1.1591602060434525e-06,3.258000135421753
15.690602339804173,-0.6374890208244324,0.0739598274230957,10.78155517578125,-1.0982492995026405e-06,3.258000135421753
15.704702537506819,-2.3955726623535156,1.5683494806289673,9.949440002441406,-1.037731863107183e-06,3.258000135421753
15.714333638548851,0.5600189566612244,-0.710270345211029,9.123217582702637,-1.202417820422852e-06,3.258000135421753
15.71989043802023,0.48554348945617676,-1.3459680080413818,10.419961929321289,-1.0557980658632005e-06,3.258000135421753
15.733674239367247,-0.0013171231839805841,-0.000268531555775553,10.134658813476562,-9.155064617516473e-07,3.258000135421753
15.741757337003946,-0.5624743700027466,0.7097693085670471,9.173086166381836,-1.0193468824581942e-06,3.258000135421753
15.752536438405514,0.07314479351043701,0.6354261636734009,10.184184074401855,-8.918493108467374e-07,3.258000135421753
15.760599039494991,2.392885446548462,-1.568898320198059,10.096256256103516,-7.813657134647656e-07,3.258000135421753
15.770643938332796,-0.1496669054031372,-1.2715425491333008,9.543668746948242,-7.801086781000777e-07,3.258000135421753
15.780686236917973,-1.2723058462142944,0.14846694469451904,9.776000022888184,-7.435488100782095e-07,3.258000135421753
15.790714036673307,-0.14957737922668457,-1.2715250253677368,9.78217887878418,-6.930199560883921e-07,3.258000135421753
15.805928036570549,0.9154506921768188,-0.429516077041626,9.784414291381836,-6.583989033970283e-07,3.258000135421753
15.81098023802042,-0.0008865835843607783,-0.00018281725351698697,9.791367530822754,-6.344624807752552e-07,3.258000135421753
15.81971513852477,1.1218924522399902,-1.4201642274856567,9.955729484558105,-5.721702223127068e-07,3.258000135421753
15.838598139584064,1.8320355415344238,-0.8587993383407593,9.13881778717041,-6.41599058326392e-07,3.258000135421753
15.843580037355423,1.1219679117202759,-1.4201492071151733,10.403693199157715,-5.4936816695772e-07,3.258000135421753
15.85241873934865,-0.0006636515608988702,-0.00013725747703574598,10.048262596130371,-4.732577281174599e-07,3.258000135421753
15.866445239633322,1.0478026866912842,-2.0557827949523926,9.072639465332031,-5.475250759445771e-07,3.258000135421753
15.871275339275599,-0.000592709518969059,-0.00012420515122357756,10.39993667602539,-4.6583554080825706e-07,3.258000135421753
15.881147038191557,0.14813232421875,1.2712258100509644,9.910238265991211,-4.058587137478753e-07,3.258000135421753
15.890725839883089,0.1481708288192749,1.2712334394454956,9.775558471679688,-3.989396759607189e-07,3.258000135421753
15.901409238576889,0.6351786255836487,-0.0744357705116272,9.685193061828613,-3.878946586155507e-07,3.258000135421753
15.912175938487053,-1.123118281364441,1.4199090003967285,9.74949836730957,-3.5434729284133937e-07,3.258000135421753
15.920890636742115,-1.2717775106430054,0.14857375621795654,10.077348709106445,-3.2226219559561287e-07,3.258000135421753
15.929628737270832,-1.123037338256836,1.4199259281158447,9.148040771484375,-3.711972169639921e-07,3.258000135421753
15.939558938145638,0.1482706069946289,1.2712548971176147,10.442477226257324,-2.8648238981077156e-07,3.258000135421753
15.954105339944363,-0.14901888370513916,-1.2714121341705322,10.052154541015625,-2.723730858633644e-07,3.258000135421753
15.96340923756361,-0.0003252222086302936,-6.784180004615337e-05,9.691972732543945,-2.5028282379935263e-07,3.258000135421753
15.974113337695599,-0.00030004794825799763,-6.323616253212094e-05,9.5479736328125,-2.538378680583264e-07,3.258000135421753
15.983217138797045,1.1223773956298828,-1.4200648069381714,10.053335189819336,-2.2128708110358275e-07,3.258000135421753
15.994165036827326,1.122391700744629,-1.4200619459152222,9.5660400390625,0.0,3.258000135421753
16.005916737020016,-0.07460248470306396,-0.6357247233390808,9.736434936523438,-4.22310826309058e-08,3.258000135421753
16.010016437619925,0.29705166816711426,2.542616605758667,10.083656311035156,-5.852373163861557e-08,3.258000135421753
16.024190738797188,-1.4202772378921509,-1.122728943824768,9.909974098205566,-9.028687486534182e-08,3.258000135421753
16.034327439963818,-0.14890563488006592,-1.2713854312896729,9.594409942626953,-1.0643987735647897e-07,3.258000135421753
16.040249038487673,-0.4872448444366455,1.3456218242645264,9.652832984924316,-1.17219094875054e-07,3.258000135421753
16.05046023800969,1.1224231719970703,-1.4200526475906372,9.933917999267578,-1.2049797248891991e-07,3.258000135421753
16.059931837022305,-1.1228983402252197,1.4199587106704712,9.903188705444336,-1.2534212601167383e-07,3.258000135421753
16.07471153885126,-1.1228704452514648,1.4199641942977905,8.6697359085083,-1.3897762585202145e-07,3.258000135421753
16.079991038888693,1.271117091178894,-0.14870715141296387,10.884718894958496,-1.3254033603971038e-07,3.258000135421753
16.090394537895918,-0.0001984450500458479,-3.741661930689588e-05,9.804585456848145,-1.3222134498391824e-07,3.258000135421753
16.102846536785364,0.1484929323196411,1.2713061571121216,9.529772758483887,-1.398584430489791e-07,3.258000135421753
16.113185338675976,-0.0745171308517456,-0.6357019543647766,10.18232536315918,-1.2352359135547886e-07,3.258000135421753
16.121731739491224,1.2711784839630127,-0.14869391918182373,9.938604354858398,-1.1461828108849659e-07,3.258000135421753
16.130951538681984,-0.317979633808136,0.03714042901992798,9.093125343322754,-1.341123976317249e-07,3.258000135421753
16.141419637948275,0.5611855387687683,-0.7100270986557007,10.456710815429688,-1.1256027221406839e-07,3.258000135421753
16.15044153854251,2.393866777420044,-1.5686925649642944,9.891949653625488,-1.0368430025664566e-07,3.258000135421753
16.1601430401206,-1.1228119134902954,1.4199789762496948,9.747785568237305,-9.950439050498971e-08,3.258000135421753
16.169562738388777,1.4198827743530273,1.1226520538330078,9.802704811096191,-9.389911070911694e-08,3.258000135421753
16.180519338697195,1.1225550174713135,-1.4200221300125122,9.525670051574707,-9.197063377541781e-08,3.258000135421753
16.194511637091637,1.403245449066162,-1.7750179767608643,9.289247512817383,-1.0219910961950518e-07,3.258000135421753
16.200407039374113,0.709896981716156,0.561319887638092,10.323704719543457,-9.078993201683261e-08,3.258000135421753
16.213798940181732,-0.14876973628997803,-1.2713534832000732,10.302081108093262,-7.557068215646723e-08,3.258000135421753
16.22667793929577,1.2712596654891968,-0.14867568016052246,9.11015510559082,-8.273410401216097e-08,3.258000135421753
16.231453139334917,-0.48709022998809814,1.345658540725708,10.223441123962402,-7.117158418168401e-08,3.258000135421753
16.241343837231398,2.5425901412963867,-0.29734230041503906,9.911565780639648,-6.259239171413356e-08,3.258000135421753
16.256614837795496,1.3084207773208618,0.16915786266326904,9.730387687683105,-6.060150070652526e-08,3.258000135421753
16.26144513860345,0.5612525343894958,-0.7100123763084412,9.779711723327637,-5.7955293897293814e-08,3.258000135421753
16.27183673903346,1.122609257698059,-1.4200092554092407,9.819547653198242,-5.494404575756562e-08,3.258000135421753
16.28048263862729,-0.9740700721740723,2.691333770751953,10.002720832824707,-5.1043059556832304e-08,3.258000135421753
16.29055153951049,0.148604154586792,1.2713311910629272,9.595812797546387,-4.956708110626096e-08,3.258000135421753
16.300939738750458,-1.1227339506149292,1.4199965000152588,9.754398345947266,-4.738005188187344e-08,3.258000135421753
16.31426403671503,1.2712732553482056,-0.1486719846725464,10.038549423217773,-4.2116184317819716e-08,3.258000135421753
16.32422263920307,2.24530291557312,-2.840008020401001,9.564126014709473,-4.055634406086028e-08,3.258000135421753
16.33131343871355,-4.055489262100309e-05,-2.185857738368213e-06,9.517563819885254,-4.42974368297655e-08,3.258000135421753
16.34134653955698,2.3939661979675293,-1.568670630455017,10.146753311157227,-3.7032918953627814e-08,3.258000135421753
16.350545037537813,0.14862334728240967,1.2713351249694824,9.895176887512207,-3.360350575576376e-08,3.258000135421753
16.36054713651538,-4.639394283294678,4.4086713790893555,9.677359580993652,-3.285974514710688e-08,3.258000135421753
16.373014640063047,-0.4870433807373047,1.345667839050293,9.43971061706543,-3.2960340234922114e-08,3.258000135421753
16.38212673738599,-2.2453877925872803,2.840003490447998,10.360147476196289,-2.7508027855560613e-08,3.258000135421753
16.39501203969121,-0.561355710029602,0.7100014686584473,9.294150352478027,-3.037019880025582e-08,3.258000135421753
16.405447337776423,0.7099801301956177,0.5613359212875366,9.98386001586914,-4.0891623420691303e-10,3.258000135421753
16.413467437028885,0.973984956741333,-2.6913399696350098,10.077092170715332,-5.853774354136476e-09,3.258000135421753
16.42346003651619,-1.2713578939437866,0.14866554737091064,9.65323543548584,-9.605803263923463e-09,3.258000135421753
16.43290003761649,1.271316409111023,-0.14866554737091064,9.863439559936523,-1.133030558264636e-08,3.258000135421753
16.443490337580442,-3.5167014598846436,2.9886715412139893,9.659811973571777,-1.375249070179052e-08,3.258000135421753
16.457230139523745,-0.07435262203216553,-0.6356686353683472,9.332009315490723,-1.7383301909035254e-08,3.258000135421753
16.46262113749981,-0.7100236415863037,-0.5613358616828918,10.41132640838623,-1.5906765682416335e-08,3.258000135421753
16.47116633877158,1.271315574645996,-0.1486654281616211,10.190276145935059,-1.4226981370768499e-08,3.258000135421753
16.48113563656807,1.2713171243667603,-0.14866554737091064,9.551745414733887,-1.5499514560701755e-08,3.258000135421753
16.491087038069963,-1.2713582515716553,0.14866554737091064,9.78187370300293,-1.5624067373209982e-08,3.258000135421753
16.503035936504602,0.07431238889694214,0.6356686949729919,9.561396598815918,-1.639219959770344e-08,3.258000135421753
16.51186563819647,-0.14868712425231934,-1.2713373899459839,10.174633026123047,-1.418728778901368e-08,3.258000135421753
16.52104213833809,0.5613164305686951,-0.7100014686584473,9.11910343170166,-1.6499100752298546e-08,3.258000135421753
16.530943639576435,0.14864301681518555,1.2713373899459839,10.595005989074707,-1.3768673312597457e-08,3.258000135421753
16.540147937834263,-1.1226927042007446,1.4200029373168945,9.820085525512695,-1.2820572159455423e-08,3.258000135421753
16.554370537400246,-0.5985216498374939,0.3921670913696289,9.096894264221191,-1.5480830839464943e-08,3.258000135421753
16.564064037054777,0.6356461644172668,-0.07433277368545532,10.567312240600586,-1.2187303610744493e-08,3.258000135421753
16.57207103818655,0.561331033706665,-0.7099965214729309,9.210993766784668,-1.346602651608464e-08,3.258000135421753
16.58357683941722,-5.4362244554795325e-06,5.436224910226883e-06,10.206337928771973,-1.1535093769055038e-08,3.258000135421753
16.595324140042067,0.6356635689735413,-0.07432764768600464,9.673974990844727,-1.1535359334402528e-08,3.258000135421753
16.604803036898375,-5.3764492804475594e-06,5.3764492804475594e-06,10.094111442565918,-1.028057639018698e-08,3.258000135421753
16.61914113909006,0.5984973907470703,-0.3921622335910797,9.107441902160645,-1.1959230938884957e-08,3.258000135421753
16.62469633668661,0.5613303780555725,-0.7099959254264832,10.370698928833008,-1.0121578242205942e-08,3.258000135421753
16.63012143969536,1.6096696853637695,-2.7656679153442383,9.812453269958496,-8.44356051743489e-09,3.258000135421753
16.642696637660265,-0.14867115020751953,-1.271331787109375,10.46910285949707,-7.874875862512454e-09,3.258000135421753
16.652238339185715,-1.1226767301559448,1.4200079441070557,9.347644805908203,-7.57832108178036e-09,3.258000135421753
16.66416723653674,-5.003286787541583e-06,5.003286787541583e-06,9.393510818481445,-7.587260597574641e-09,3.258000135421753
16.66967063769698,-0.14867079257965088,-1.2713321447372437,9.866724967956543,-7.287608294603842e-09,3.258000135421753
16.683689538389444,-5.408842298493255e-06,5.408842298493255e-06,10.154927253723145,-6.180740808048313e-09,3.258000135421753
16.694216936826706,-0.48700809478759766,1.3456752300262451,9.512543678283691,-5.837686778420448e-09,3.258000135421753
16.70573003962636,0.07432764768600464,0.6356738209724426,9.668295860290527,-5.6234585876779875e-09,3.258000135421753
16.70984433963895,-1.2713427543640137,0.14867091178894043,10.031600952148438,-5.027429583748244e-09,3.258000135421753
16.722592439502478,-1.271342396736145,0.14867055416107178,9.427553176879883,-5.432928773529966e-09,3.258000135421753
16.73357953876257,-0.07433807849884033,-0.6356632709503174,10.040146827697754,-5.218435017440015e-09,3.258000135421753
16.742261938750744,-0.14867103099822998,-1.2713319063186646,10.135929107666016,-3.944404358691145e-09,3.258000135421753
16.752402037382126,0.1486605405807495,1.2713425159454346,9.520185470581055,-3.974199636047615e-09,3.258000135421753
16.76300583779812,2.3940038681030273,-1.568663239479065,9.695691108703613,-4.32649382986483e-09,3.258000135421753
16.77328583970666,0.9740009307861328,-2.6913352012634277,9.879416465759277,-3.6878216036484446e-09,3.258000135421753
16.785013537853956,1.2713322639465332,-0.14866042137145996,9.583414077758789,-4.0267442713570745e-09,3.258000135421753
16.790696837008,0.07432752847671509,0.6356739401817322,9.917295455932617,-4.0297236658659585e-09,3.258000135421753
16.799861438572407,3.5166754722595215,-2.988665819168091,10.042337417602539,-3.3302902657794675e-09,3.258000135421753
16.81029573827982,0.29732584953308105,2.542679786682129,9.657787322998047,-2.2636101326689584e-10,3.258000135421753
16.81996113806963,0.317829430103302,-0.03716149926185608,9.194085121154785,-2.895985395934275e-10,3.258000135421753
16.830512538552284,1.1226661205291748,-1.419997215270996,10.582014083862305,-1.0582504872402865e-09,3.258000135421753
16.839549239724874,-1.2713427543640137,0.14867091178894043,9.946220397949219,-5.59121804410978e-10,3.258000135421753
16.852597638964653,-4.8454321586177684e-06,4.845432613365119e-06,9.09714412689209,-1.2778298419391376e-09,3.258000135421753
16.86137903854251,-1.4200085401535034,-1.1226662397384644,10.576738357543945,-1.4475917131662186e-09,3.258000135421753
16.871297039091587,1.4199978113174438,1.1226768493652344,9.577803611755371,-1.8285702951814642e-09,3.258000135421753
16.881098236888647,0.1486603021621704,1.2713425159454346,9.792284965515137,-1.6763892496385324e-09,3.258000135421753
16.892247136682272,0.7099963426589966,0.5613410472869873,9.581314086914062,-1.8438706117507309e-09,3.258000135421753
16.901628639549017,-1.1226773262023926,1.4200081825256348,10.015095710754395,-1.1854872639105452e-09,3.258000135421753
16.911217339336872,-0.6356735229492188,0.0743376612663269,9.115017890930176,-2.4270447873675494e-09,3.258000135421753
16.92119073867798,-1.2713429927825928,0.14867115020751953,10.664139747619629,-1.8127046530480584e-09,3.258000135421753
16.930915739387274,2.2453384399414062,-2.840000629425049,9.781042098999023,-1.2216011535670646e-09,3.258000135421753
16.943347238004208,0.07432776689529419,0.6356737017631531,9.425649642944336,-2.7416171555216806e-09,3.258000135421753
16.954049538820982,-1.7583458423614502,1.4943410158157349,10.038362503051758,-1.5462536806509775e-09,3.258000135421753
16.96200953796506,0.9740009307861328,-2.6913349628448486,10.06625747680664,-6.57101595358256e-10,3.258000135421753
16.973342936486006,-0.5613409280776978,0.7100064754486084,9.426109313964844,-6.698993026965638e-10,3.258000135421753
16.98346323892474,0.29732561111450195,2.542679786682129,9.970863342285156,-1.6158389071208035e-09,3.258000135421753
16.99290843680501,2.5426695346832275,-0.29732584953308105,9.764782905578613,-2.355985850854836e-09,3.258000135421753
17.006926637142897,-0.1691737174987793,1.3085087537765503,9.315807342529297,-1.3479982685637992e-09,3.258000135421753
17.011748738586903,-5.5073705880204216e-06,5.5073705880204216e-06,10.339912414550781,-1.4814637294691124e-09,3.258000135421753
17.02171853929758,-1.1226773262023926,1.4200081825256348,9.923298835754395,-1.7544486974330198e-09,3.258000135421753
17.030970636755228,-1.2713426351547241,0.14867079257965088,9.816190719604492,-5.896852450781864e-10,3.258000135421753
17.040840439498425,-0.9740116596221924,2.69134521484375,9.728558540344238,-6.393723328557144e-10,3.258000135421753
17.052992038428783,-1.1226767301559448,1.4200080633163452,9.461844444274902,-8.042754240378258e-10,3.258000135421753
17.06200273707509,-1.2713428735733032,0.14867091178894043,10.329150199890137,-9.50373224561929e-10,3.258000135421753
17.071973636746407,1.2713321447372437,-0.1486603021621704,9.610294342041016,-5.104979217129824e-10,3.258000135421753
17.082424238324165,-0.14867079257965088,-1.2713321447372437,9.717819213867188,-6.531201690584965e-10,3.258000135421753
17.094404738396406,-1.2713425159454346,0.14867067337036133,9.608417510986328,-4.947043330538747e-10,3.258000135421753
17.104039538651705,0.5613305568695068,-0.7099960446357727,10.057451248168945,-5.62876023568748e-10,3.258000135421753
17.111789137125015,0.5613309144973755,-0.7099964022636414,9.409421920776367,-7.136078949976365e-10,3.258000135421753
17.121744640171528,-5.495737696037395e-06,5.495737696037395e-06,10.318071365356445,-7.309571836700002e-10,3.258000135421753
17.130942337214947,-0.14867079257965088,-1.271332025527954,9.882823944091797,-5.427886473619026e-10,3.258000135421753
17.14094753935933,1.2713321447372437,-0.1486603021621704,9.667579650878906,-6.317869560845679e-10,3.258000135421753
17.152221336960793,-2.0556766986846924,-1.0483341217041016,9.623408317565918,-7.731643658637211e-10,3.258000135421753
17.161486938595772,-5.368848178477492e-06,5.368847723730141e-06,10.079839706420898,-1.0049957532842768e-09,3.258000135421753
17.173193037509918,1.1226667165756226,-1.4199978113174438,9.463336944580078,-3.435412787577974e-10,3.258000135421753
17.18290303647518,1.122666597366333,-1.4199975728988647,10.031389236450195,-7.355064335357042e-10,3.258000135421753
17.191758938133717,0.14866018295288086,1.2713426351547241,9.984560012817383,-3.7872663338767154e-10,3.258000135421753
17.202105436474085,2.3940041065216064,-1.568663239479065,9.534811973571777,-3.629335165733494e-10,3.258000135421753
17.21386233717203,1.122666597366333,-1.4199978113174438,9.546501159667969,0.0,3.258000135421753
17.21952733770013,-1.2713427543640137,0.14867091178894043,9.9929780960083,1.2477266442267876e-10,3.258000135421753
17.232904739677906,-1.1226773262023926,1.4200083017349243,10.121038436889648,3.058406028433325e-10,3.258000135421753
17.24303463846445,0.974001407623291,-2.6913352012634277,9.563879013061523,-1.021376663801199e-10,3.258000135421753
17.24979793652892,-0.07433784008026123,-0.6356635689735413,9.585957527160645,4.6116926943895464e-10,3.258000135421753
17.260169737040997,1.122666597366333,-1.4199975728988647,10.019704818725586,3.507440171635068e-10,3.258000135421753
17.269555937498808,0.9740009307861328,-2.6913349628448486,9.957082748413086,5.189253471371558e-10,3.258000135421753
17.284460838884115,0.1486603021621704,1.2713425159454346,9.7791109085083,3.854789265567149e-10,3.258000135421753
17.289723437279463,-1.2713425159454346,0.14867067337036133,9.741068840026855,3.112131108373717e-10,3.258000135421753
17.299906738102436,0.1486603021621704,1.2713425159454346,9.770976066589355,1.4330252262606535e-10,3.258000135421753
17.310881938785315,-1.4200081825256348,-1.1226667165756226,9.765986442565918,-3.1296126801194646e-10,3.258000135421753
17.32082523778081,-0.31783926486968994,0.03717133402824402,9.265691757202148,-6.864911972215282e-10,3.258000135421753
17.331875637173653,0.07432711124420166,0.6356742978096008,10.559033393859863,-1.2557062056828272e-09,3.258000135421753
17.340958539396524,-5.341799806046765e-06,5.341800260794116e-06,10.029058456420898,2.4130034081970564e-10,3.258000135421753
17.35373753681779,-0.14867043495178223,-1.2713323831558228,9.272173881530762,-5.646363376854424e-10,3.258000135421753
17.363603837788105,1.4199973344802856,1.1226773262023926,10.344355583190918,2.2132326527035673e-10,3.258000135421753
17.37557403743267,-0.784339189529419,-1.1969995498657227,9.440284729003906,2.611574290156682e-10,3.258000135421753
17.38067953661084,-1.758345603942871,1.4943407773971558,9.977273941040039,2.4534219100758037e-10,3.258000135421753
17.3898235373199,1.2713319063186646,-0.1486600637435913,10.10655403137207,1.2221761103159423e-10,3.258000135421753
17.40482983738184,-0.14867079257965088,-1.2713321447372437,9.661046028137207,-6.902022287036402e-10,3.258000135421753
17.40991973876953,-5.14164867126965e-06,5.1416491260170005e-06,9.653281211853027,3.2605983885103385e-11,3.258000135421753
17.420872040092945,-1.2713426351547241,0.14867079257965088,9.757948875427246,-8.067095880193165e-10,3.258000135421753
17.433859039098024,-0.9740116596221924,2.691345453262329,10.064881324768066,-3.306317997164854e-10,3.258000135421753
17.443908538669348,1.2713321447372437,-0.1486603021621704,9.631359100341797,-1.6152400597602146e-11,3.258000135421753
17.45788984000683,-0.20634007453918457,0.9906743764877319,9.271063804626465,-3.1216335072414836e-10,3.258000135421753
17.464023239910603,-5.456366125144996e-06,5.456366125144996e-06,10.244153022766113,1.6341600295177727e-10,3.258000135421753
17.472023736685514,1.1226661205291748,-1.4199973344802856,10.237531661987305,-3.285092683991131e-12,3.258000135421753
17.485550239682198,-0.22300302982330322,-1.9070011377334595,9.142223358154297,5.7018171434330966e-11,3.258000135421753
17.490698136389256,0.07432729005813599,0.6356740593910217,10.226778030395508,-2.7885291298268555e-10,3.258000135421753
17.500316239893436,-2.245349168777466,2.8400111198425293,10.061873435974121,-5.63660229602192e-10,3.258000135421753
17.510198138654232,-0.14867079257965088,-1.2713321447372437,9.697648048400879,-3.862347247585163e-11,3.258000135421753
17.520497240126133,2.096672534942627,-4.111337661743164,9.714324951171875,-5.505583489107124e-11,3.258000135421753
17.531160339713097,1.2713321447372437,-0.1486603021621704,9.731212615966797,4.028482061824157e-11,3.258000135421753
17.540863938629627,-2.2453486919403076,2.84001088142395,9.906742095947266,-6.50150044911868e-10,3.258000135421753
17.554324436932802,1.3456650972366333,0.48700809478759766,9.288639068603516,-4.456199992342036e-11,3.258000135421753
17.563104137778282,2.2453384399414062,-2.8400001525878906,10.489123344421387,-2.3967577922334726e-10,3.258000135421753
17.57679033651948,-0.7100063562393188,-0.5613309144973755,9.157742500305176,-2.1240639802577732e-10,3.258000135421753
17.581599436700344,0.4869976043701172,-1.3456645011901855,10.345392227172852,-4.982997695024416e-11,3.258000135421753
17.591595839709044,1.4199975728988647,1.1226770877838135,9.947490692138672,-2.632732643004232e-10,3.258000135421753
17.60059243813157,-5.251041784504196e-06,5.251041784504196e-06,9.858662605285645,1.2450486475135136e-10,3.258000135421753
17.611223738640547,0.974001407623291,-2.6913352012634277,9.56573486328125,-2.168353274711876e-10,3.258000135421753
17.622359838336706,1.122666597366333,-1.4199976921081543,9.720163345336914,0.0,3.258000135421753
17.631955936551094,-0.14867091178894043,-1.271332025527954,9.985250473022461,-1.8059758549737737e-11,3.258000135421753
17.645341638475657,-4.899904979538405e-06,4.899904979538405e-06,9.199414253234863,-3.9361555681516336e-11,3.258000135421753
17.649854738265276,-1.2713429927825928,0.14867103099822998,10.399813652038574,-2.4438472079335583e-11,3.258000135421753
17.663916639983654,1.122666597366333,-1.4199975728988647,9.915329933166504,-2.2059283219522108e-11,3.258000135421753
17.67297223955393,0.2063302993774414,-0.9906644821166992,9.176168441772461,-1.863465458329383e-11,3.258000135421753
17.68326983973384,-0.4870086908340454,1.3456757068634033,10.50112247467041,7.8648990532032e-13,3.258000135421753
17.692459538578987,1.122666597366333,-1.4199976921081543,9.891731262207031,-3.603215226188894e-10,3.258000135421753
17.701992738991976,-1.1970094442367554,0.7843389511108398,9.032938957214355,-8.543742102684604e-11,3.258000135421753
17.712615840137005,-5.636362857330823e-06,5.636362857330823e-06,10.582090377807617,-2.336379353873319e-11,3.258000135421753
17.72158793732524,1.122666597366333,-1.4199975728988647,9.97896671295166,-1.902573584788847e-11,3.258000135421753
17.73125533759594,1.2713321447372437,-0.1486603021621704,9.630392074584961,-4.9406700952658866e-11,3.258000135421753
17.742367036640644,1.4943304061889648,1.758345365524292,9.552144050598145,-2.7872041480359044e-11,3.258000135421753
17.751229636371136,-1.2713427543640137,0.14867091178894043,10.064091682434082,-5.483920262339126e-11,3.258000135421753
17.764809038490057,-4.890418495051563e-06,4.890418495051563e-06,9.181604385375977,-9.22053475238549e-11,3.258000135421753
17.770158037543297,-1.1970099210739136,0.7843396663665771,10.187660217285156,-3.998176442698842e-11,3.258000135421753
17.784564539790154,2.096672534942627,-4.111337661743164,10.134217262268066,-9.216866853067884e-11,3.258000135421753
17.789620436728,-1.1226767301559448,1.4200080633163452,9.471029281616211,-5.1504672055058265e-11,3.258000135421753
17.80395633727312,-4.890623131359462e-06,4.890622676612111e-06,9.181987762451172,-1.2287357763207662e-11,3.258000135421753
17.813027437776327,-0.14867126941680908,-1.271331548690796,10.82954216003418,-6.146144010399368e-11,3.258000135421753
17.827109336853027,0.2806631028652191,-0.3549959063529968,9.039104461669922,-1.118203030170406e-10,3.258000135421753
17.83227813988924,0.07432723045349121,0.6356741786003113,10.35092830657959,3.7859645973803424e-10,3.258000135421753
17.841678138822317,1.2713319063186646,-0.1486600637435913,10.152061462402344,-2.4454735111922865e-11,3.258000135421753
17.851639237254858,-1.2713425159454346,0.14867067337036133,9.631102561950684,-5.667616029270128e-11,3.258000135421753
17.86069193854928,0.24349671602249146,-0.6728302240371704,9.113326072692871,-5.345301284931381e-11,3.258000135421753
17.87103793770075,-0.6356742978096008,0.07433837652206421,10.503311157226562,5.014408333003928e-11,3.258000135421753
17.88444373756647,-1.1226773262023926,1.4200081825256348,10.033914566040039,4.0088685149264336e-10,3.258000135421753
17.89380743727088,2.3940043449401855,-1.568663239479065,9.514689445495605,-4.106778458967675e-11,3.258000135421753
17.902345538139343,-0.6356735825538635,0.07433772087097168,9.196057319641113,-6.147513748056e-11,3.258000135421753
17.91395054012537,-0.48700857162475586,1.3456754684448242,10.175390243530273,-8.610211849058302e-11,3.258000135421753
17.92227193713188,-1.2713428735733032,0.14867091178894043,10.259642601013184,-5.7818073245785584e-11,3.258000135421753
17.932354036718607,-0.14867055416107178,-1.2713322639465332,9.48906421661377,3.431825379429654e-10,3.258000135421753
17.944589737802744,-0.4126756191253662,1.9813437461853027,9.504892349243164,-7.16047776627704e-11,3.258000135421753
17.949573438614607,0.9740009307861328,-2.6913349628448486,10.032971382141113,-8.9525324653561e-11,3.258000135421753
17.965720139443874,1.7583351135253906,-1.4943304061889648,9.724767684936523,-9.650502619251711e-11,3.258000135421753
17.971695236861706,-5.200426130613778e-06,5.200425675866427e-06,9.763632774353027,-9.538904388595171e-11,3.258000135421753
17.980296839028597,1.122666358947754,-1.4199974536895752,10.192883491516113,-7.71758143502943e-11,3.258000135421753
17.990512538701296,2.2453384399414062,-2.840000629425049,9.53976821899414,-8.384472977018831e-11,3.258000135421753
18.005249336361885,1.2713326215744019,-0.1486607789993286,8.831011772155762,-6.170757654855308e-11,3.258000135421753
18.013992939144373,-1.5686742067337036,-2.394003391265869,11.113960266113281,3.9078987268403864e-10,3.258000135421753
18.02812483906746,-0.03717145323753357,-0.3178292512893677,9.55085277557373,0.0,3.258000135421753
18.033693738281727,-0.48700833320617676,1.3456752300262451,9.7493257522583,-2.7698239535300928e-11,3.258000135421753
