Timestamp,Accel_X,Accel_Y,Accel_Z,Gyro_Z
4.665222592651844,2.5409309104044463e-34,-3.1140792265800945e-34,9.8100004196167,0.0
4.6718918941915035,-6650364.5,8150462.0,-5012.177734375,0.0
4.6842322908341885,-4.76837158203125e-07,-0.6399999856948853,-144.55844116210938,0.0
4.693434294313192,-0.3199997544288635,0.32000023126602173,115.39249420166016,0.0
4.705896593630314,-0.3199999928474426,2.384185791015625e-07,-52.564842224121094,0.0
4.718884192407131,-1.1920928955078125e-07,-0.1599999964237213,42.647735595703125,0.0
4.7273186929523945,2.384185791015625e-07,0.3199999928474426,-0.8778896331787109,0.0
4.732069693505764,0.6399999856948853,-4.76837158203125e-07,2.747344493865967,0.0
4.740646794438362,1.2799999713897705,-9.5367431640625e-07,19.60710906982422,6.466667912263802e-08
4.752118892967701,0.0,0.0,-160.1805419921875,-5.720699469691226e-10
4.761625692248344,2.5599989891052246,-1.2800018787384033,21.30859375,-8.283809194153946e-10
4.77393489331007,-1.2799983024597168,1.9200009107589722,188.88327026367188,4.621661275905353e-09
4.782390993088484,-4.76837158203125e-07,-0.6399999856948853,165.03260803222656,7.484672437385598e-09
4.794988092035055,-4.76837158203125e-07,-0.6399999856948853,-79.49790954589844,1.1038007841079889e-08
4.805575091391802,-0.3199995160102844,0.6400002241134644,126.21741485595703,1.1374325481483538e-08
4.814584992825985,0.6399997472763062,-0.32000046968460083,22.568309783935547,1.0915790937815473e-08
4.823612194508314,0.0,0.0,20.073535919189453,9.02781138734099e-09
4.83618239313364,-0.6400004625320435,-0.639999508857727,-15.171366691589355,9.850836590885592e-09
4.842450492084026,-0.639999508857727,0.6400004625320435,65.2662124633789,7.47651895949275e-09
4.857668790966272,7.748603820800781e-07,0.9599999785423279,0.09195423126220703,3.4250984271011475e-09
4.865328092128038,-0.3199995160102844,0.6400002241134644,35.198829650878906,2.418181210828152e-09
4.872924491763115,-0.3199995160102844,0.6400002241134644,14.5234375,3.220836930495352e-10
4.885843992233276,4.76837158203125e-07,0.6399999856948853,7.9678521156311035,9.418430479968265e-10
4.893232394009829,-0.639999508857727,0.6400004625320435,22.463945388793945,8.742340185108333e-10
4.901183992624283,0.3199999928474426,-2.384185791015625e-07,12.744609832763672,-9.657223909442791e-10
4.911752093583345,-0.3199999928474426,2.384185791015625e-07,12.129785537719727,-9.422809199577387e-10
4.925015792250633,-0.3199995160102844,0.6400002241134644,16.860157012939453,-5.119397128439118e-10
4.932683393359184,0.3199999928474426,-2.384185791015625e-07,7.050352096557617,-2.2699317980823253e-09
4.947023291140795,0.0,0.0,18.040937423706055,4.261626052048939e-10
4.954460993409157,4.76837158203125e-07,0.6399999856948853,4.489727020263672,-1.4937242553969554e-09
4.960772693157196,-1.279999017715454,1.280000925064087,10.5498046875,-1.0047096488108309e-10
4.974735092371702,0.6399999856948853,-4.76837158203125e-07,25.370311737060547,-4.883669024735582e-10
4.982122793793678,0.639999508857727,-0.6400004625320435,-3.199413299560547,-1.0000931194298346e-09
4.995750892907381,-1.279999017715454,1.280000925064087,22.423553466796875,-8.776628313000856e-10
5.002123292535543,0.639999508857727,-0.6400004625320435,-3.1924991607666016,-1.361746271300035e-09
5.016016893088818,0.0,0.0,22.249765396118164,-1.1924576881483517e-09
5.02245669439435,-9.5367431640625e-07,-1.2799999713897705,-2.6755075454711914,-1.4630048283947872e-09
5.029663290828466,0.6399999856948853,-4.76837158203125e-07,9.628007888793945,-2.4602204717893983e-09
5.043809093534946,0.6399990320205688,-1.2800004482269287,24.416717529296875,-2.6402080521847893e-10
5.050085391849279,-0.6399990320205688,1.2800004482269287,-6.453631401062012,-1.7348056324806294e-09
5.063648093491793,0.0,0.0,23.393165588378906,-5.241108658182725e-10
5.070462692528963,0.6399999856948853,-4.76837158203125e-07,-4.144042015075684,-1.562537654820062e-09
5.083235293626785,4.76837158203125e-07,0.6399999856948853,21.700977325439453,-1.6722387918832737e-09
5.091833792626858,0.0,0.0,-1.767226219177246,-5.993541218884957e-10
5.10403049364686,-0.639999508857727,0.6400004625320435,22.92203140258789,-8.589253752688819e-10
5.110766392201185,-0.6400004625320435,-0.639999508857727,-6.208905220031738,-4.170273015802195e-10
5.124838691204786,-0.6399999856948853,4.76837158203125e-07,22.403614044189453,-8.807292672941003e-10
5.131622191518545,-0.6400004625320435,-0.639999508857727,-3.8761520385742188,-1.4021923622209442e-09
5.145981293171644,-0.31999897956848145,1.2800002098083496,17.945030212402344,-1.5751200344027438e-09
5.153436090797186,-0.6399990320205688,1.2800004482269287,0.9661922454833984,-1.6378374212422386e-09
5.165548991411924,-0.639999508857727,0.6400004625320435,17.53191375732422,2.145470467951327e-10
5.172424994409084,4.76837158203125e-07,0.6399999856948853,0.8229598999023438,1.2135670246493646e-10
5.1800942942500114,0.6399990320205688,-1.2800004482269287,9.402793884277344,4.2376835374113853e-10
5.19249539449811,0.6399999856948853,-4.76837158203125e-07,16.36736297607422,-1.8533543588716839e-09
5.199573092162609,-4.76837158203125e-07,-0.6399999856948853,2.1359381675720215,-5.18250886649696e-10
5.21493599191308,-0.9599999785423279,7.748603820800781e-07,13.945210456848145,2.845778057647408e-10
5.2202121913433075,-0.6399999856948853,4.76837158203125e-07,4.4665727615356445,-1.7503958282816257e-09
5.234656292945147,4.76837158203125e-07,0.6399999856948853,14.748456954956055,-2.592772663234655e-10
5.240183193236589,-0.6399999856948853,4.76837158203125e-07,4.1679301261901855,6.776139649389279e-10
5.2543915919959545,-0.639999508857727,0.6400004625320435,14.979990005493164,1.8558576897476087e-09
5.262197893112898,-0.3199995160102844,0.6400002241134644,4.541059970855713,1.7090324710977711e-09
5.275189191102982,0.0,0.0,13.751474380493164,1.0646341586095787e-09
5.2822876907885075,4.76837158203125e-07,0.6399999856948853,5.1461381912231445,-8.65983285081029e-10
5.2955340929329395,9.5367431640625e-07,1.2799999713897705,13.566909790039062,-3.0663016570287027e-10
5.31918029114604,-0.07999980449676514,0.24000005424022675,7.728425025939941,-2.189924686035738e-09
5.325180392712355,0.32000023126602173,0.3199997544288635,9.772693634033203,3.9493630588083306e-10
5.330460492521524,-0.6399999856948853,4.76837158203125e-07,9.733593940734863,-1.1444378777980546e-09
5.337629791349173,0.6399990320205688,-1.2800004482269287,9.41882610321045,2.9721303196339477e-10
5.343580391258001,0.6400004625320435,0.639999508857727,9.826562881469727,6.612670411243471e-10
5.3499325923621655,0.0,0.0,9.616277694702148,1.3886700678256148e-09
5.365657690912485,-0.6399999856948853,4.76837158203125e-07,11.420319557189941,-6.857603374044174e-11
5.371707893908024,0.6399999856948853,-4.76837158203125e-07,7.856186389923096,-1.0043883502675044e-09
5.385546393692493,0.0,0.0,11.351652145385742,-2.224323392141514e-09
5.392972193658352,0.0,0.0,7.956144332885742,-1.0656528992569747e-09
5.400525990873575,0.0,0.0,9.705649375915527,-2.491447936847635e-09
5.414952293038368,0.639999508857727,-0.6400004625320435,10.976325988769531,1.8583501404378922e-10
5.421839993447065,-4.76837158203125e-07,-0.6399999856948853,8.435135841369629,-2.667442933201869e-10
5.434378292411566,1.2799994945526123,-0.6400009393692017,11.474730491638184,-1.5382561890930901e-09
5.442439094185829,-0.9599999785423279,7.748603820800781e-07,7.895078659057617,1.8400125867401584e-10
5.450270991772413,4.76837158203125e-07,0.6399999856948853,9.788207054138184,-8.949370133848333e-10
5.463550291955471,0.0,0.0,10.992609977722168,-8.527780703815324e-10
5.471047792583704,0.3199999928474426,-2.384185791015625e-07,8.466202735900879,4.066433301197492e-10
5.484805792570114,0.6399990320205688,-1.2800004482269287,10.882101058959961,-1.4544693227591665e-10
5.4916452914476395,0.6399990320205688,-1.2800004482269287,8.612415313720703,-2.5126484226589696e-11
5.506466291844845,0.0,0.0,10.493203163146973,-1.0223699664635433e-09
5.512839291244745,-0.6399999856948853,4.76837158203125e-07,9.028122901916504,-2.4299673384575726e-10
5.520061891525984,0.6399999856948853,-4.76837158203125e-07,9.651103973388672,-1.4335044262736574e-10
5.534773793071508,0.6399999856948853,-4.76837158203125e-07,10.424444198608398,-7.344427288558109e-10
5.5414579920470715,-4.76837158203125e-07,-0.6399999856948853,9.138440132141113,-2.1749828604811228e-09
5.555967293679714,-0.3199999928474426,2.384185791015625e-07,10.128023147583008,1.7762002979537783e-10
5.563268691301346,0.639999508857727,-0.6400004625320435,9.344350814819336,3.4191485753787276e-10
5.570753291249275,-0.3199999928474426,2.384185791015625e-07,9.760701179504395,-1.452159503756434e-10
5.585126992315054,0.3199995160102844,-0.6400002241134644,10.164356231689453,4.151048949019298e-11
5.592539694160223,0.32000046968460083,0.6399997472763062,9.398401260375977,4.14462353326428e-10
5.606061693280935,0.9599990844726562,-1.2800006866455078,10.13705825805664,6.327283141871476e-10
5.613580591976643,0.639999508857727,-0.6400004625320435,9.410390853881836,-5.434239169765931e-10
5.621037591248751,-0.3199999928474426,2.384185791015625e-07,9.804119110107422,-2.6653235174478596e-10
5.634320091456175,-4.76837158203125e-07,-0.6399999856948853,10.203581809997559,5.534170899323954e-10
5.64234609156847,0.3199995160102844,-0.6400002241134644,9.29928970336914,-3.062144982024506e-10
5.656512390822172,-0.3199995160102844,0.6400002241134644,9.938855171203613,0.0
5.665361791849136,0.31999921798706055,-0.960000216960907,9.398513793945312,-8.197929002307092e-10
5.672185193747282,0.0,0.0,10.10947322845459,-1.3513582475255248e-09
5.6857423931360245,0.6399990320205688,-1.2800004482269287,9.968483924865723,-6.093951454566593e-10
5.692829292267561,9.5367431640625e-07,1.2799999713897705,9.61881160736084,-8.694923114838105e-10
5.700314793735743,-0.3199995160102844,0.6400002241134644,9.761394500732422,-4.5328710229775027e-10
5.71332299336791,-1.2799994945526123,0.6400009393692017,10.106609344482422,-5.626251686763339e-10
5.72060389444232,0.0,0.0,9.531018257141113,-3.9965827869359316e-10
5.733708493411541,4.76837158203125e-07,0.6399999856948853,10.122954368591309,7.394618251055363e-10
5.740689292550087,-4.76837158203125e-07,-0.6399999856948853,9.521797180175781,1.8953610902983087e-10
5.75579859316349,-0.3199995160102844,0.6400002241134644,9.759057998657227,6.330848345559303e-11
5.763905093073845,-2.384185791015625e-07,-0.3199999928474426,9.734697341918945,-7.684929081985814e-11
5.79467149451375,0.08000009506940842,0.11999993026256561,9.839640617370605,5.154921975392135e-11
5.802663493901491,-0.15999987721443176,0.16000011563301086,9.797389030456543,2.6074184478197537e-11
5.808213394135237,0.639999508857727,-0.6400004625320435,10.134223937988281,5.937632330255127e-11
5.813856292515993,-0.6399990320205688,1.2800004482269287,9.7692289352417,-6.513522360362956e-11
5.819980591535568,-4.76837158203125e-07,-0.6399999856948853,9.723325729370117,-4.956575150316667e-10
5.826843794435263,1.2799983024597168,-1.9200009107589722,9.696704864501953,-8.454775768385048e-11
5.8337971940636635,1.2799999713897705,-9.5367431640625e-07,9.791667938232422,7.523132117270848e-11
5.8400651924312115,0.6399999856948853,-4.76837158203125e-07,9.892495155334473,6.611600156247732e-11
5.8544753938913345,-0.9599994421005249,0.6400007605552673,9.705195426940918,9.912140552792437e-11
5.8620578944683075,0.0,0.0,9.754505157470703,-4.774015210928795e-11
5.88283209130168,0.3199995756149292,-0.48000022768974304,9.883997917175293,5.896921284609391e-10
5.892166193574667,-0.1599997580051422,0.3200001120567322,9.560713768005371,2.411386923473202e-10
5.898855891078711,4.76837158203125e-07,0.6399999856948853,10.190573692321777,5.544915915312032e-11
5.90533759444952,0.0,0.0,9.824357986450195,7.650791805646762e-11
5.912085693329573,4.76837158203125e-07,0.6399999856948853,9.761777877807617,7.608536717329528e-11
5.919701993465424,-1.2799994945526123,0.6400009393692017,9.686421394348145,6.192041324126762e-11
5.933464393019676,1.279999017715454,-1.280000925064087,10.021787643432617,8.36008762217233e-11
5.94098799303174,-0.3199999928474426,2.384185791015625e-07,9.596817016601562,8.519118743777199e-11
5.958476692438126,-0.3199997544288635,0.32000023126602173,9.54098892211914,9.45857836498476e-11
5.965032793581486,-0.6399999856948853,4.76837158203125e-07,10.265998840332031,8.84819648105939e-11
5.972480792552233,0.0,0.0,9.678418159484863,1.2462830767390187e-10
5.979643993079662,-0.959998369216919,1.9200007915496826,9.843513488769531,8.757329583719553e-11
5.994790993630886,0.0,0.0,9.778186798095703,-5.206688968861783e-10
6.002885192632675,-4.76837158203125e-07,-0.6399999856948853,9.713167190551758,-5.611822118112286e-11
6.010156594216824,0.0,0.0,9.92477798461914,9.69667401928831e-11
6.023476593196392,-0.6399990320205688,1.2800004482269287,10.034788131713867,4.090899841102669e-11
6.031312294304371,4.76837158203125e-07,0.6399999856948853,9.485817909240723,6.045522416009419e-11
6.044846892356873,-0.3199995160102844,0.6400002241134644,10.044580459594727,-5.357606025491179e-10
6.053000792860985,-0.3199999928474426,2.384185791015625e-07,9.523909568786621,1.1086231932466717e-10
6.061217591166496,-0.3199995160102844,0.6400002241134644,9.813435554504395,1.1519390302749954e-10
6.070815794169903,-0.3199997544288635,0.32000023126602173,9.878799438476562,0.0
6.079893991351128,0.0,0.0,9.852746963500977,-7.83996656537056e-05
6.09456929191947,55.681827545166016,3.8263168334960938,9.742326736450195,0.01866006851196289
6.100135091692209,-2.5583322048187256,0.6416676044464111,9.824094772338867,0.03172667324542999
6.1143860928714275,126.73285675048828,9.466232299804688,9.072098731994629,0.047058843076229095
6.122153092175722,-57.922752380371094,-4.390575408935547,9.927926063537598,0.05804629623889923
6.134820394217968,160.0411376953125,14.984970092773438,9.502373695373535,0.06920693814754486
6.1423754915595055,-116.50474548339844,-10.535804748535156,10.049003601074219,0.07601253688335419
6.150499790906906,9.618844985961914,3.168487548828125,9.761917114257812,0.08023862540721893
6.163159891963005,190.80801391601562,16.384841918945312,9.525567054748535,0.0913223847746849
6.170774392783642,-161.35794067382812,-15.760513305664062,10.180441856384277,0.09429843723773956
6.184548892080784,238.88197326660156,21.417449951171875,9.292684555053711,0.09837611764669418
6.190822292119265,-234.3791961669922,-19.361785888671875,10.638422012329102,0.10720627009868622
6.205274794250727,280.5523376464844,23.06146240234375,8.970168113708496,0.1157999187707901
6.211698893457651,-253.6393280029297,-20.555587768554688,10.689920425415039,0.11079396307468414
6.22546599432826,266.5273742675781,22.5684814453125,9.174115180969238,0.11519931256771088
6.232903193682432,-229.02105712890625,-17.648452758789062,10.32912540435791,0.12752628326416016
6.246345993131399,274.9063415527344,21.746795654296875,9.39405345916748,0.12997469305992126
6.254671391099691,-240.9302520751953,-18.452072143554688,10.13403034210205,0.12033883482217789
6.289280790835619,5.104677200317383,0.4649386405944824,9.831329345703125,0.12859056890010834
6.296558193862438,5.14688777923584,0.5387940406799316,9.90196418762207,0.1440257579088211
6.30185429379344,5.814845085144043,1.8010320663452148,10.04995346069336,0.13920269906520844
6.306538891047239,6.44138240814209,1.1430835723876953,9.856648445129395,0.14057542383670807
6.312110792845488,3.8826231956481934,1.1966140270233154,9.655232429504395,0.14181311428546906
6.318562593311071,6.381877422332764,-1.4273324012756348,9.669411659240723,0.14320698380470276
6.324898194521666,5.164547920227051,1.1578259468078613,9.8115873336792,0.14447222650051117
6.3310644924640656,4.575043678283691,3.088986873626709,9.817275047302246,0.14562444388866425
6.344038791954517,307.94439697265625,22.237518310546875,9.33578109741211,0.14799420535564423
6.351805593818426,-261.1124572753906,-18.7369384765625,10.0128173828125,0.14862282574176788
6.364948194473982,420.4516296386719,33.8192138671875,9.475711822509766,0.15208099782466888
6.372591391205788,-410.80645751953125,-31.709228515625,10.15098762512207,0.15161646902561188
6.38011659309268,4.832241058349609,0.4859938621520996,9.833052635192871,0.1523037552833557
6.3926133923232555,502.63970947265625,34.2889404296875,9.455221176147461,0.15531359612941742
6.406293790787458,-67.33064270019531,-2.6187744140625,9.69697380065918,0.15592271089553833
6.413859590888023,-380.7232360839844,-24.4732666015625,10.176740646362305,0.15820464491844177
6.420579094439745,3.2106785774230957,-0.12108421325683594,9.928722381591797,0.1592703014612198
6.434966791421175,444.5342712402344,30.14959716796875,9.185624122619629,0.160483255982399
6.440776690840721,-461.298095703125,-32.2120361328125,10.569536209106445,0.16105081140995026
6.454465594142675,446.0494689941406,31.880828857421875,9.145899772644043,0.16342541575431824
6.460802294313908,-416.3844909667969,-27.00421142578125,10.349554061889648,0.16400425136089325
6.474545493721962,498.1163024902344,31.755859375,9.165600776672363,0.1645403802394867
6.481759890913963,-455.0492248535156,-28.15887451171875,10.27388858795166,0.16343343257904053
6.495158091187477,438.547607421875,28.680938720703125,9.405284881591797,0.156738743185997
6.502698492258787,-416.5378723144531,-30.01495361328125,10.138242721557617,0.1376611590385437
6.515854794532061,424.1469421386719,20.614471435546875,9.505531311035156,0.11806906759738922
6.522567693144083,-439.08282470703125,-23.955230712890625,10.227431297302246,0.11184541881084442
6.529842793941498,3.845231771469116,-0.2107086181640625,9.729093551635742,0.10721233487129211
6.543442390859127,398.6014404296875,14.416229248046875,9.438862800598145,0.102982297539711
6.549652494490147,-418.89923095703125,-16.192535400390625,10.333016395568848,0.10162544995546341
6.56358989328146,508.916015625,19.26092529296875,9.160451889038086,0.10049509257078171
6.570645194500685,-464.673828125,-18.98504638671875,10.294305801391602,0.09913351386785507
6.583570193499327,468.39605712890625,15.60137939453125,9.439901351928711,0.09938491880893707
6.591456793248653,-431.10076904296875,-13.694061279296875,10.024701118469238,0.09922367334365845
6.603903394192457,486.5126953125,16.72137451171875,9.622169494628906,0.09892687946557999
6.610412091016769,-526.9441528320312,-17.03411865234375,10.199814796447754,0.09808235615491867
6.624704394489527,628.726806640625,22.48284912109375,9.050114631652832,0.09887813776731491
6.631977993994951,-582.3630981445312,-19.3179931640625,10.414629936218262,0.09774255752563477
6.6399866938591,5.395315647125244,-0.9995779991149902,9.714776039123535,0.09863198548555374
6.653046693652868,574.8468627929688,19.91253662109375,9.523158073425293,0.0980314090847969
6.667100694030523,-113.33404541015625,-6.259407043457031,9.738075256347656,0.08229304850101471
6.674904294312,-411.2188720703125,-13.606903076171875,10.146483421325684,0.07519453018903732
6.680951092392206,3.840601682662964,-0.26847052574157715,10.045549392700195,0.07116161286830902
6.695033494383097,571.169189453125,10.6400146484375,9.114612579345703,0.06438348442316055
6.702320192009211,-509.9624328613281,-11.56005859375,10.273294448852539,0.0620373860001564
6.7168062925338745,493.3027038574219,11.041748046875,9.314163208007812,0.059951357543468475
6.7234642915427685,-503.2745361328125,-11.402099609375,10.403535842895508,0.059114497154951096
6.729882892221212,5.209510803222656,0.9020547866821289,9.825333595275879,0.05847238004207611
6.74382059276104,736.3631591796875,12.138671875,9.03762149810791,0.05719803273677826
6.7505433931946754,-708.02880859375,-10.76068115234375,10.501933097839355,0.05658406764268875
6.7646400928497314,615.6276245117188,10.097412109375,9.174118041992188,0.05677401274442673
6.770930092781782,-623.7635498046875,-7.33770751953125,10.502705574035645,0.05609956011176109
6.784370593726635,968.219970703125,11.984130859375,8.826072692871094,0.05613104999065399
6.7906863912940025,-951.07421875,-14.244873046875,10.75943660736084,0.055385787039995193
6.805090591311455,693.5993041992188,12.28900146484375,8.989521980285645,0.05554216355085373
6.811917293816805,-654.953125,-10.548095703125,10.52387523651123,0.05488293617963791
6.8260784931480885,673.3812866210938,7.365478515625,9.124560356140137,0.042053379118442535
6.8324314914643764,-684.6633911132812,-12.11572265625,10.568534851074219,0.031916361302137375
6.846703093498945,582.1475219726562,2.06964111328125,9.114653587341309,0.015354575589299202
6.852952893823385,-574.4066772460938,-5.8558349609375,10.510043144226074,0.010167502798140049
6.866567991673946,605.3840942382812,-0.49249267578125,9.150134086608887,0.0035797245800495148
6.873665291815996,-557.2630004882812,-0.107666015625,10.307795524597168,0.0015898339916020632
6.879992991685867,3.786726474761963,-0.9431064128875732,9.911044120788574,-0.00011858080688398331
6.894201692193747,758.1885986328125,-0.3975830078125,8.95652961730957,-0.002506445161998272
6.901178691536188,-711.444580078125,-1.39996337890625,10.528631210327148,-0.0031711540650576353
6.913612492382526,699.1895141601562,0.478515625,9.320084571838379,-0.004477945622056723
6.921151392161846,-659.0938110351562,-1.112060546875,10.177860260009766,-0.004756121896207333
6.934901591390371,780.772216796875,1.167236328125,10.065590858459473,-0.005794585216790438
6.942083492875099,-788.3087158203125,0.67791748046875,9.995586395263672,-0.005715403240174055
6.949680794030428,3.568634033203125,0.3588724136352539,9.76254940032959,-0.006208168808370829
6.962555591017008,858.1222534179688,-2.8780517578125,9.222846984863281,-0.006366643588989973
6.97593829408288,-210.51907348632812,0.5441741943359375,9.817525863647461,-0.00625190045684576
6.99924099445343,-279.2820129394531,0.6173095703125,9.973771095275879,-0.009870381094515324
7.005038093775511,2.5612587928771973,-0.2022838592529297,9.795557975769043,-0.00759814353659749
7.009896192699671,2.0234644412994385,1.1240198612213135,9.810514450073242,-0.006865910720080137
7.015832591801882,6.877139568328857,-2.4668216705322266,9.756285667419434,-0.007673292420804501
7.022354692220688,0.2593879699707031,3.188596725463867,9.8260498046875,-0.007422119379043579
7.034556094557047,805.3538208007812,-4.0625,9.139408111572266,-0.007623842917382717
7.042019292712212,-741.1818237304688,3.48223876953125,10.391688346862793,-0.007707147393375635
7.055462192744017,810.6581420898438,-1.7763671875,9.190300941467285,-0.008218834176659584
7.061816092580557,-873.7188720703125,-0.39813232421875,10.472217559814453,-0.007871553301811218
7.074617393314838,699.62646484375,-1.3272705078125,9.200023651123047,-0.008474322967231274
7.082340393215418,-622.9133911132812,1.07513427734375,10.3121919631958,-0.00843122135847807
7.089792393147945,-0.7291891574859619,-1.2276602983474731,9.841997146606445,-0.008428262546658516
7.103024292737246,731.0408325195312,-1.67584228515625,9.179272651672363,-0.008705634623765945
7.110078793019056,-736.5260620117188,-3.11627197265625,10.378108024597168,-0.015825916081666946
7.123536892235279,992.0288696289062,-4.845947265625,9.014896392822266,-0.028563059866428375
7.130516991019249,-987.6456909179688,2.997314453125,10.59389877319336,-0.0324958860874176
7.14336759224534,944.8131103515625,-8.85260009765625,8.992719650268555,-0.04000077024102211
7.150260094553232,-936.2553100585938,2.78472900390625,10.591233253479004,-0.04252694174647331
7.16503469273448,752.402587890625,-6.21923828125,9.173239707946777,-0.0474369041621685
7.171913791447878,-746.0548095703125,4.8536376953125,10.477375984191895,-0.04677708074450493
7.186183292418718,693.5824584960938,-6.834228515625,9.174552917480469,-0.049611084163188934
7.193787593394518,-646.5632934570312,4.35540771484375,10.370448112487793,-0.05078311264514923
7.200471892952919,0.055187225341796875,0.6355937719345093,9.838293075561523,-0.04988318309187889
7.213861491531134,645.8516845703125,-4.93280029296875,9.185372352600098,-0.051175642758607864
7.221320793032646,-595.86328125,3.60394287109375,10.339166641235352,-0.05205250531435013
7.234707593917847,1009.3158569335938,-9.26904296875,8.922399520874023,-0.05263553559780121
7.242572791874409,-968.9033203125,8.5208740234375,10.680096626281738,-0.05191913619637489
7.249991994351149,5.297955513000488,-2.304835319519043,9.806188583374023,-0.053271591663360596
7.262850992381573,954.83837890625,-7.14129638671875,8.961353302001953,-0.05213983729481697
7.2700424939394,-958.5202026367188,8.9697265625,10.666111946105957,-0.051049623638391495
7.284984193742275,814.3134155273438,-6.5435791015625,9.05224895477295,-0.05201476439833641
7.292012494057417,-811.150390625,5.3763427734375,10.583093643188477,-0.05290588364005089
7.3053841926157475,820.0667114257812,-6.07196044921875,9.031363487243652,-0.051988113671541214
7.312343493103981,-809.1964111328125,5.03765869140625,10.578351020812988,-0.05081108585000038
7.3262411914765835,850.1277465820312,-6.57525634765625,8.9863920211792,-0.051441740244627
7.33331199362874,-828.2728271484375,6.7239990234375,10.611228942871094,-0.0511745810508728
7.34113709256053,3.797900676727295,-0.8962337970733643,9.823424339294434,-0.050075601786375046
7.3550539910793304,621.4609375,-5.61553955078125,9.196887016296387,-0.06020740419626236
7.361543692648411,-664.2069091796875,3.65850830078125,10.453299522399902,-0.06389400362968445
7.375166893005371,1026.623779296875,-12.290771484375,8.7897310256958,-0.06988848745822906
7.383379593491554,-895.3933715820312,7.80078125,10.714264869689941,-0.07031214237213135
7.390607092529535,5.119026184082031,-0.3268265724182129,9.805390357971191,-0.07231460511684418
7.404384791851044,1040.0614013671875,-10.957275390625,8.795902252197266,-0.07434315979480743
7.411926791071892,-1005.554443359375,8.236328125,10.807384490966797,-0.07446131110191345
7.425950091332197,937.72021484375,-10.74560546875,8.874565124511719,-0.07598507404327393
7.433157291263342,-945.1306762695312,9.39202880859375,10.748126983642578,-0.0756041556596756
7.440181292593479,3.1276803016662598,-1.471670150756836,9.8259859085083,-0.07565148919820786
7.453797694295645,1052.122314453125,-9.7032470703125,8.736246109008789,-0.07508376985788345
7.461207192391157,-1006.9158325195312,9.0555419921875,10.820341110229492,-0.07474806904792786
7.475233692675829,990.468505859375,-10.2760009765625,8.80752182006836,-0.0752435103058815
7.482309393584728,-1000.2193603515625,7.097900390625,10.84017276763916,-0.07376939058303833
7.489682894200087,5.832221984863281,0.9530072212219238,9.792099952697754,-0.0749216228723526
7.504477690905333,1122.4112548828125,-10.2314453125,8.661056518554688,-0.0738738477230072
7.511716093868017,-1120.4793701171875,9.533447265625,10.980879783630371,-0.07226530462503433
7.526321094483137,830.7533569335938,-9.5892333984375,8.939481735229492,-0.07320968061685562
7.53317229449749,-836.5238037109375,8.83441162109375,10.68185806274414,-0.07229896634817123
7.5400231927633286,4.41718053817749,-1.5153303146362305,9.809833526611328,-0.07233945280313492
7.554719991981983,1239.4735107421875,-10.8525390625,8.495904922485352,-0.07139332592487335
7.561717793345451,-1210.089111328125,8.0406494140625,11.089569091796875,-0.07816632837057114
7.576363291591406,908.0980224609375,-10.912353515625,8.841390609741211,-0.08224771171808243
7.584556993097067,-826.5970458984375,6.0008544921875,10.704041481018066,-0.082305908203125
7.591382592916489,5.155109405517578,0.38904476165771484,9.797320365905762,-0.08226718753576279
7.6057152934372425,1048.6572265625,-10.8201904296875,8.691929817199707,-0.08334138989448547
7.613139092922211,-993.3425903320312,7.60302734375,10.881470680236816,-0.08298572897911072
7.619967091828585,5.793591022491455,0.3718733787536621,9.79716968536377,-0.0833578035235405
7.634809792041779,1085.358642578125,-11.8448486328125,8.646628379821777,-0.08232239633798599
7.641799192875624,-1058.5745849609375,8.1158447265625,10.954140663146973,-0.08196870982646942
7.655929993838072,1072.6156005859375,-8.896728515625,8.652426719665527,-0.06701166182756424
7.663293492048979,-1030.5528564453125,10.4993896484375,10.926164627075195,-0.05643294379115105
7.669831193983555,2.649122714996338,1.807020664215088,9.809645652770996,-0.05033893510699272
7.684406094253063,971.5673828125,-3.90106201171875,8.762565612792969,-0.03787960112094879
7.691303592175245,-933.1006469726562,4.00689697265625,10.818414688110352,-0.03283629193902016
7.7046372927725315,1227.6953125,-5.4771728515625,8.487630844116211,-0.027133267372846603
7.712390691041946,-1140.3096923828125,3.5975341796875,11.042783737182617,-0.024463025853037834
7.725536793470383,1364.2427978515625,-2.1019287109375,8.341156959533691,-0.021100839599967003
7.731757193803787,-1514.7576904296875,1.6102294921875,11.442605018615723,-0.019293932244181633
7.745434291660786,1165.6951904296875,-1.312255859375,8.559351921081543,-0.017906805500388145
7.752345092594624,-1094.026123046875,-1.1124267578125,10.985248565673828,-0.024725738912820816
7.765503492206335,1244.993408203125,-3.8489990234375,8.475902557373047,-0.027057502418756485
7.772791091352701,-1196.9853515625,2.348876953125,11.093414306640625,-0.02712908387184143
7.786173291504383,987.2174072265625,-2.67279052734375,8.75712776184082,-0.02875356562435627
7.793160792440176,-994.5760498046875,2.1175537109375,10.872286796569824,-0.028704341500997543
7.79993549361825,4.487158298492432,-0.1745457649230957,9.805274963378906,-0.02929305098950863
7.813681993633509,1198.8292236328125,-3.5640869140625,8.532739639282227,-0.02952667884528637
7.821100894361734,-1131.3375244140625,0.7349853515625,11.014806747436523,-0.029325053095817566
7.834882091730833,1291.709716796875,-2.4556884765625,8.435874938964844,-0.030251450836658478
7.841320693492889,-1373.6236572265625,3.34814453125,11.27448844909668,-0.029706835746765137
7.855905592441559,1333.874755859375,-4.4757080078125,8.391952514648438,-0.030465010553598404
7.862948291003704,-1264.0478515625,4.1888427734375,11.149614334106445,-0.029708420857787132
7.869756892323494,4.510803699493408,0.47426557540893555,9.806290626525879,-0.030172208324074745
7.8851735927164555,1357.8857421875,-3.53515625,8.378778457641602,-0.02977919951081276
7.891453091055155,-1396.012939453125,2.086181640625,11.279733657836914,-0.029721243306994438
7.906159091740847,1059.769287109375,-3.0028076171875,8.694601058959961,-0.029982542619109154
7.912858594208956,-1016.2562255859375,1.2569580078125,10.879486083984375,-0.029414182528853416
7.926834691315889,1069.938232421875,-4.5511474609375,8.687017440795898,-0.03919324651360512
7.93412509188056,-1014.018310546875,0.3956298828125,10.8738431930542,-0.038727544248104095
7.9411850944161415,5.127314567565918,-0.17705011367797852,9.804117202758789,-0.03941522166132927
7.95574989169836,1133.6297607421875,-4.201416015625,8.626190185546875,-0.03926070034503937
7.96253989264369,-1141.6484375,2.8858642578125,10.998636245727539,-0.03884640336036682
7.975282892584801,1311.2415771484375,-5.971923828125,8.446455001831055,-0.03936811164021492
7.982216093689203,-1283.0982666015625,4.0582275390625,11.14376449584961,-0.038658514618873596
8.001485094428062,4.957508087158203,-0.47991323471069336,9.805527687072754,-0.03961899131536484
8.008206691592932,4.137814044952393,-1.0930466651916504,9.804365158081055,-0.03908107429742813
8.012832093983889,3.928656816482544,2.436002492904663,9.80618667602539,-0.038805242627859116
8.02568469196558,1813.7667236328125,-7.408203125,7.939236640930176,-0.038162969052791595
8.033073093742132,-1438.6688232421875,2.455322265625,11.290543556213379,-0.03737584501504898
8.040296994149685,4.488082408905029,-0.13815784454345703,9.806199073791504,-0.03785070404410362
8.05297839269042,1608.2908935546875,-3.8935546875,8.159162521362305,-0.037150803953409195
8.060626693069935,-1544.2998046875,1.547607421875,11.391592025756836,-0.036390531808137894
8.073037892580032,1889.3017578125,-5.1396484375,7.871363162994385,-0.036927059292793274
8.079585794359446,-2047.4632568359375,3.500732421875,11.911638259887695,-0.03598334267735481
8.094194494187832,1635.07373046875,-5.3416748046875,8.134527206420898,-0.04449274018406868
8.101455591619015,-1539.128662109375,0.8602294921875,11.379958152770996,-0.0428890623152256
8.115981992334127,1045.4561767578125,-2.39013671875,8.74483871459961,-0.04265182465314865
8.122579094022512,-1078.7564697265625,1.0804443359375,10.909133911132812,-0.04165618121623993
8.135849293321371,1693.317138671875,-3.3741455078125,8.085933685302734,-0.041344381868839264
8.143149692565203,-1590.933349609375,0.1734619140625,11.425237655639648,-0.040935762226581573
8.150080393999815,6.3912224769592285,-0.808497428894043,9.804993629455566,-0.04072324559092522
8.163044892251492,1426.921630859375,-4.3341064453125,8.35534381866455,-0.03954863175749779
8.170103091746569,-1399.4075927734375,2.60546875,11.234827041625977,-0.03879178315401077
8.183872394263744,2017.109130859375,-6.204345703125,7.754149913787842,-0.03903751075267792
8.191035892814398,-1986.4107666015625,3.62353515625,11.83318042755127,-0.03786889463663101
8.205410093069077,1547.22802734375,-4.22998046875,8.232688903808594,-0.03830791264772415
8.21210989356041,-1585.643310546875,2.8250732421875,11.42436695098877,-0.0372195728123188
8.225612591952085,1534.4193115234375,-3.406005859375,8.24863338470459,-0.03740078955888748
8.232006091624498,-1556.838134765625,1.6363525390625,11.390982627868652,-0.036469217389822006
8.245157390832901,1478.740966796875,-1.702880859375,8.306097984313965,-0.03669585660099983
8.252871491014957,-1331.1949462890625,-0.119384765625,11.16396713256836,-0.04269253835082054
8.265160392969847,4.32208776473999,-0.4154238700866699,9.804697036743164,-0.041766948997974396
8.273351293057203,4.795346736907959,-0.744084358215332,9.80523681640625,-0.04128541797399521
8.28097129240632,5.115502834320068,-0.749302864074707,9.803337097167969,-0.04019860550761223
8.295662391930819,1268.055908203125,-2.699951171875,8.517244338989258,-0.038484763354063034
8.300180193036795,-1572.743408203125,2.2103271484375,11.413545608520508,-0.03783179074525833
8.31434629112482,1321.8070068359375,-2.8646240234375,8.463602066040039,-0.03721824288368225
8.321639992296696,-1070.8680419921875,2.140869140625,10.900616645812988,-0.03603570535778999
8.335875991731882,1186.4248046875,-1.85595703125,8.602151870727539,-0.035551413893699646
8.342237491160631,-1251.3896484375,0.8780517578125,11.085180282592773,-0.034714583307504654
8.353699691593647,4.489245891571045,-0.08403778076171875,9.805038452148438,-0.03467589616775513
8.360098592936993,4.454727649688721,-2.0027389526367188,9.80667495727539,-0.03416823595762253
8.374638494104147,1837.07666015625,-0.79052734375,7.935743808746338,-0.03334188461303711
8.380510792136192,-1899.138671875,0.8671875,11.745771408081055,-0.0327005572617054
8.393882092088461,1847.2938232421875,-1.0927734375,7.9309210777282715,-0.032699909061193466
8.400860991328955,-1683.4140625,0.49365234375,11.524455070495605,-0.033156994730234146
8.412714194506407,1743.5654296875,-2.09765625,8.03471851348877,-0.03285779431462288
8.426526691764593,-7.0594964027404785,-1.8108596801757812,9.817282676696777,-0.03140494227409363
8.43388669192791,-1542.5909423828125,-0.9276123046875,11.380070686340332,-0.031135648488998413
8.439571093767881,3.8593688011169434,0.5783841609954834,9.802483558654785,-0.030866792425513268
8.453069593757391,1851.7049560546875,-2.1690673828125,7.932835578918457,-0.030243270099163055
8.460170794278383,-1650.70947265625,1.3642578125,11.482266426086426,-0.029584676027297974
8.472885891795158,1587.3580322265625,-1.110595703125,8.206332206726074,-0.029774174094200134
8.48058669269085,-1508.2972412109375,0.2713623046875,11.335369110107422,-0.02890668995678425
8.496537391096354,1032.4122314453125,-1.04736328125,8.767539978027344,-0.029031746089458466
8.502750992774963,-1120.086181640625,0.4481201171875,10.941560745239258,-0.028387073427438736
8.515433091670275,1657.71826171875,-2.6566162109375,8.140958786010742,-0.02839365042746067
8.52197989448905,-1603.9600830078125,0.36669921875,11.421175003051758,-0.02827722206711769
8.535505093634129,1512.4429931640625,-0.52587890625,8.291574478149414,-0.02808624505996704
8.542603891342878,-1442.020751953125,0.01708984375,11.258527755737305,-0.024980131536722183
8.554820492863655,2039.818359375,-1.7109375,7.762742042541504,-0.025122884660959244
8.561333291232586,-2121.743408203125,-0.197509765625,11.938045501708984,-0.024524498730897903
8.574844993650913,1808.77978515625,0.7076416015625,7.998273849487305,-0.024847466498613358
8.582785692065954,-1621.5428466796875,-0.6396484375,11.432467460632324,-0.023996341973543167
8.596143294125795,1383.7674560546875,-0.68115234375,8.425414085388184,-0.024063926190137863
8.603162493556738,-1459.92431640625,-0.6376953125,11.267280578613281,-0.023632923141121864
8.61145769432187,4.179907321929932,0.9130654335021973,9.809184074401855,-0.02395479567348957
8.624553192406893,1470.149169921875,-1.930908203125,8.3408842086792,-0.023573562502861023
8.632201593369246,-1523.5936279296875,-0.3436279296875,11.327728271484375,-0.023157719522714615
8.644443091005087,1462.476806640625,-0.5311279296875,8.35387134552002,-0.0235042255371809
8.65171679109335,-1488.0687255859375,-0.74560546875,11.291328430175781,-0.022988950833678246
8.664362091571093,1978.3731689453125,3.1905517578125,7.847222328186035,-0.007717867847532034
8.670774791389704,-2102.495361328125,-0.778564453125,11.896819114685059,-0.00522855157032609
8.684946693480015,1626.333740234375,0.96337890625,8.208847999572754,-0.0018112376565113664
8.691779792308807,-1565.5111083984375,-0.9149169921875,11.352107048034668,-0.0003101348993368447
8.705086193978786,1972.600830078125,2.0831298828125,7.882800102233887,0.0014380664797499776
8.712505493313074,-1877.84765625,-1.0479736328125,11.648048400878906,0.0022971045691519976
8.724856991320848,2251.64013671875,0.549072265625,7.6380510330200195,0.003216066164895892
8.731569491326809,-2365.560302734375,-1.943603515625,12.094986915588379,0.003853172529488802
8.744783993810415,1907.3302001953125,3.10107421875,8.00143051147461,0.004002463072538376
8.750974491238594,-1975.788330078125,-2.3790283203125,11.681690216064453,0.004372398369014263
8.763738993555307,1868.2860107421875,2.6923828125,8.084356307983398,0.0041543273255229
8.770705793052912,-1754.3214111328125,-0.564208984375,11.430524826049805,0.004376957193017006
8.783434491604567,1927.137451171875,-0.603759765625,8.084246635437012,0.0038462134543806314
8.790638294070959,-1886.1551513671875,0.8883056640625,11.495186805725098,0.003935821820050478
8.803497891873121,2067.943115234375,-0.87109375,8.02093505859375,0.003166517708450556
8.809583391994238,-2247.781982421875,0.173828125,11.744864463806152,0.004552262835204601
8.823378693312407,1892.5853271484375,0.092529296875,8.255897521972656,0.003629688872024417
8.830269694328308,-1778.6346435546875,0.7205810546875,11.261844635009766,0.003635136177763343
8.842457391321659,1879.7987060546875,1.386474609375,8.340460777282715,0.002797751221805811
8.849598690867424,-1841.3714599609375,-0.4620361328125,11.236869812011719,0.0027065780013799667
8.862821694463491,2253.564697265625,0.0498046875,8.161115646362305,0.001696860883384943
8.869841992855072,-2272.728515625,2.091552734375,11.450239181518555,0.001677997875958681
8.883227992802858,2289.4091796875,0.272705078125,8.258313179016113,0.0005469975876621902
8.8902044929564,-2295.160888671875,-0.844970703125,11.33536148071289,0.0005944504518993199
8.903482791036367,1865.7181396484375,1.404541015625,8.661901473999023,-0.0005339276976883411
8.91006489098072,-1922.0087890625,0.44384765625,10.966121673583984,-0.0005265027284622192
8.922723393887281,2336.772216796875,0.47509765625,8.509675979614258,-0.001553189242258668
8.929848793894053,-2240.758544921875,-0.840087890625,11.025724411010742,-0.0015167747624218464
8.942926991730928,2067.306640625,-0.526611328125,8.796744346618652,-0.0026773400604724884
8.955755691975355,-117.77471160888672,-1.3655319213867188,9.877613067626953,0.00017535213555675
8.962600491940975,-1991.133544921875,0.35546875,10.655665397644043,-0.00043930206447839737
8.974953293800354,1957.2186279296875,-0.6229248046875,9.077054023742676,-0.0014353302540257573
8.981534291058779,-2000.73388671875,0.403076171875,10.52006721496582,-0.0014773624716326594
8.994368392974138,2130.6748046875,0.263916015625,9.17177677154541,-0.002483670599758625
9.000739593058825,-2170.332763671875,1.381591796875,10.418397903442383,-0.0024637430906295776
9.01338979229331,1843.9107666015625,-2.4993896484375,9.389467239379883,-0.0034323991276323795
9.020146694034338,-1795.9263916015625,0.0552978515625,10.181612968444824,-0.003412386402487755
9.032866593450308,2136.4140625,-1.43212890625,9.48669719696045,-0.004318920895457268
9.045874491333961,-157.44302368164062,0.2783966064453125,9.83462142944336,-0.004406060557812452
9.052226893603802,-2001.37646484375,-0.0877685546875,9.960380554199219,-0.00486133573576808
9.064996290951967,1863.1270751953125,-0.3363037109375,9.777536392211914,-0.005747389048337936
9.071962393820286,-1788.8887939453125,-0.461669921875,9.797648429870605,-0.00562977185472846
9.084895391017199,1814.4764404296875,-0.92041015625,9.923859596252441,-0.006497679743915796
9.091849394142628,-1824.7340087890625,-0.9825439453125,9.650919914245605,-0.006387922912836075
9.106311693787575,1880.398681640625,-0.639892578125,10.0977783203125,-0.007376384921371937
9.112520292401314,-1998.1732177734375,-0.2537841796875,9.445863723754883,-0.0076709166169166565
9.126410391181707,1662.149658203125,-0.2821044921875,10.206320762634277,-0.0026773267891258
9.133534993976355,-1569.332275390625,1.9359130859375,9.394049644470215,-0.0028403920587152243
9.139902293682098,-4.481600284576416,0.04157876968383789,9.804737091064453,-0.0034125400707125664
9.153681293129921,1896.3902587890625,-1.024169921875,10.463610649108887,-0.004128243774175644
9.160262193530798,-1879.1099853515625,1.4493408203125,9.110150337219238,-0.00427634920924902
9.17407039180398,1788.8621826171875,-1.1236572265625,10.561102867126465,-0.005424479953944683
9.18242859095335,-1595.5970458984375,-0.728759765625,9.09210205078125,-0.005351372994482517
9.195785094052553,1545.6600341796875,0.032470703125,10.567325592041016,-0.006289241369813681
9.20452619343996,-1521.9949951171875,-0.97119140625,9.00924301147461,-0.00623604841530323
9.211290393024683,-4.4727654457092285,1.3197650909423828,9.796086311340332,-0.006773952394723892
9.22757689282298,1342.109619140625,-1.9884033203125,10.625433921813965,-0.00720972940325737
9.234305690973997,-1360.704833984375,-0.7940673828125,8.944758415222168,-0.0072390190325677395
9.24110159277916,-5.125249862670898,0.04441022872924805,9.804734230041504,-0.007784599903970957
9.255572691559792,1970.617919921875,-1.055908203125,11.167865753173828,-0.008142353966832161
9.262821391224861,-1924.57958984375,-2.656494140625,8.43556022644043,-0.008076179772615433
9.269820392131805,-5.131595134735107,-0.5968203544616699,9.803415298461914,-0.008716908283531666
9.283661391586065,2291.27294921875,-0.076416015625,11.553460121154785,-0.008945154026150703
9.289926793426275,-2445.531982421875,-0.047119140625,7.896536827087402,-0.009097089059650898
9.304489191621542,1687.0906982421875,0.2230224609375,11.181535720825195,-0.009936302900314331
9.311482790857553,-1618.6015625,2.3048095703125,8.45738410949707,-0.009546681307256222
9.325043693184853,1187.865478515625,-0.5552978515625,10.82494831085205,-0.010223343037068844
9.332081891596317,-1200.0457763671875,-0.0174560546875,8.753993034362793,-0.003390344325453043
9.346017394214869,1580.85302734375,1.5382080078125,11.228055000305176,-0.004050141200423241
9.3535863943398,-1541.815673828125,0.02197265625,8.396125793457031,-0.004208664875477552
9.360211692750454,-3.8634862899780273,-1.8901617527008057,9.796598434448242,-0.004434960428625345
9.375110991299152,1272.02197265625,-0.955078125,11.020853042602539,-0.005360923707485199
9.381824791431427,-1278.129150390625,-0.3250732421875,8.57108211517334,-0.005441220011562109
9.395547892898321,1768.3560791015625,-0.7708740234375,11.540555953979492,-0.006275593768805265
9.402713194489479,-1725.500732421875,-0.2755126953125,8.094381332397461,-0.006168454885482788
9.416249692440033,1550.75732421875,0.4708251953125,11.360641479492188,-0.006987395230680704
9.423019092530012,-1612.2100830078125,0.5526123046875,8.174511909484863,-0.007240254897624254
9.430435493588448,-5.143745422363281,-1.882399082183838,9.80135726928711,-0.0070120794698596
9.447466094046831,1289.3074951171875,0.4949951171875,11.148351669311523,-0.007550516631454229
9.453045591711998,-1472.0447998046875,0.456298828125,8.259997367858887,-0.007719453424215317
9.460957892239094,-7.035955429077148,1.9700884819030762,9.8080415725708,-0.008111422881484032
9.47427549213171,1853.468505859375,-0.98779296875,11.767958641052246,-0.008268139325082302
9.48232289403677,-1850.93798828125,-0.4371337890625,7.837373733520508,-0.008418481796979904
9.496689092367887,1046.743896484375,1.4202880859375,10.931672096252441,-0.00905277393758297
9.504575192928314,-1073.3173828125,-0.3515625,8.644051551818848,-0.00874018669128418
9.511156294494867,-5.765956401824951,0.6783447265625,9.802926063537598,-0.009071482345461845
9.52755169197917,984.3234252929688,-1.074462890625,10.888802528381348,-0.009256243705749512
9.53515649214387,-939.871826171875,-0.2467041015625,8.768898963928223,-0.00918697938323021
9.541813593357801,-5.7746663093566895,-0.6032743453979492,9.804089546203613,-0.009272344410419464
9.558084294199944,930.5665283203125,-0.1295166015625,10.845744132995605,-0.009824606589972973
9.564875893294811,-938.8956909179688,2.08355712890625,8.758794784545898,-0.0026842241641134024
9.571603991091251,-5.782772541046143,-1.8842735290527344,9.802970886230469,-0.0031777704134583473
9.58809819445014,902.4069213867188,0.1376953125,10.828641891479492,-0.0037206225097179413
9.594797894358635,-919.700439453125,1.22589111328125,8.765148162841797,-0.003754332894459367
9.601883493363857,-5.146679878234863,-2.528778553009033,9.804388999938965,-0.0042282468639314175
9.609685491770506,-4.4909210205078125,0.027069091796875,9.80422306060791,-0.004374140407890081
9.625766091048717,1536.3338623046875,-0.357421875,11.563177108764648,-0.004814377054572105
9.632313292473555,-1690.2847900390625,-0.6832275390625,7.872076034545898,-0.0048265159130096436
9.64860089123249,977.2793579101562,-1.0084228515625,10.936596870422363,-0.005738179199397564
9.655137494206429,-993.9508666992188,-0.572998046875,8.662253379821777,-0.012145006097853184
9.662538394331932,-5.145848274230957,-2.5311479568481445,9.802552223205566,-0.014968342147767544
9.669684793800116,-6.407527923583984,0.6752891540527344,9.801823616027832,-0.017039870843291283
9.68492829427123,2024.9595947265625,-3.113525390625,12.156290054321289,-0.020536202937364578
9.692545291036367,-1973.1566162109375,-0.0450439453125,7.516989707946777,-0.02130901627242565
9.699927993118763,-6.414434909820557,-0.6090974807739258,9.80156421661377,-0.023135637864470482
9.7163095921278,1545.600830078125,-0.7147216796875,11.611845970153809,-0.024424267932772636
9.723271392285824,-1609.6229248046875,0.733642578125,7.928803443908691,-0.024404728785157204
9.729956794530153,-5.7686004638671875,0.6632571220397949,9.802993774414062,-0.02538810856640339
9.745576292276382,1677.4246826171875,-3.922119140625,11.770581245422363,-0.025669438764452934
9.752411093562841,-1677.45068359375,2.9891357421875,7.845050811767578,-0.025299591943621635
9.759624693542719,-5.771393775939941,0.018776893615722656,9.802942276000977,-0.026107385754585266
9.774564690887928,1690.2269287109375,-2.7088623046875,11.784306526184082,-0.02585337869822979
9.782579991966486,-1615.3690185546875,2.785888671875,7.921762943267822,-0.02521451935172081
9.79848899319768,742.0648803710938,-2.177978515625,10.674901962280273,-0.025960752740502357
9.80595089122653,-779.5333251953125,-0.11907958984375,8.896537780761719,-0.0253891758620739
9.813418593257666,-4.488728046417236,1.288038730621338,9.804953575134277,-0.025370968505740166
9.819627091288567,-5.132702827453613,-0.6314024925231934,9.803013801574707,-0.025265201926231384
9.836009591817856,1895.6649169921875,-2.956787109375,12.01529598236084,-0.024858443066477776
9.842855494469404,-1825.2918701171875,-0.0164794921875,7.689580917358398,-0.0240294449031353
9.849648591130972,-5.1288957595825195,1.9254703521728516,9.800169944763184,-0.010458432137966156
9.864542793482542,2290.546875,-1.368408203125,12.479031562805176,-0.011364387348294258
9.872518092393875,-2112.01025390625,0.966796875,7.351142883300781,-0.011456286534667015
9.880120690912008,-5.131423473358154,0.003975391387939453,9.801390647888184,-0.012407413683831692
9.897802092134953,1183.9879150390625,-0.24658203125,11.182077407836914,-0.01263878121972084
9.904524192214012,-1271.0501708984375,0.8426513671875,8.337905883789062,-0.012545660138130188
9.911295492202044,-5.1317644119262695,-0.637995719909668,9.803180694580078,-0.01301814429461956
9.920885492116213,-6.411528587341309,-0.3180546760559082,9.801796913146973,-0.013000049628317356
9.934904191643,973.4276733398438,-1.54156494140625,10.933788299560547,-0.013025138527154922
9.941623691469431,-1189.770263671875,2.1328125,8.436881065368652,-0.013038991019129753
9.957062494009733,1086.06787109375,-1.25146484375,11.060765266418457,-0.013642323203384876
9.963865794241428,-1095.6907958984375,1.793212890625,8.550505638122559,-0.012866944074630737
9.97137339413166,-4.491450309753418,0.638089656829834,9.797436714172363,-0.01367893535643816
9.998981691896915,225.8286895751953,-0.1114654541015625,10.06988525390625,-0.011897486634552479
10.004458393901587,-256.6512145996094,0.1539306640625,9.508584976196289,-0.012843507342040539
10.010485991835594,-7.692194938659668,1.2735514640808105,9.827065467834473,-0.012939775362610817
10.018746193498373,-4.49013614654541,-1.2846078872680664,9.789308547973633,-0.012859251350164413
10.025152992457151,-6.412388324737549,1.2732772827148438,9.817988395690918,-0.012877426110208035
10.032657291740179,-4.491168022155762,-0.005400180816650391,9.792834281921387,-0.012820124626159668
10.047598093748093,645.4306640625,-1.46759033203125,10.543047904968262,-0.012833413667976856
10.056684590876102,-603.531982421875,0.48675537109375,9.139749526977539,-0.012676632031798363
10.06339829415083,-1.9328988790512085,1.2764437198638916,9.781030654907227,-0.012974455021321774
10.078010991215706,686.0740966796875,-3.07171630859375,10.593944549560547,-0.012830451130867004
10.085961490869522,-649.6124267578125,0.5037841796875,9.090371131896973,-0.012411165982484818
10.092755492776632,-3.8499200344085693,-0.6476395130157471,9.784062385559082,-0.01253568846732378
10.107017792761326,834.8731079101562,-1.57244873046875,10.757562637329102,-0.012671999633312225
10.116092294454575,-737.2922973632812,0.079833984375,8.99692440032959,-0.012160276062786579
10.125047992914915,-2.5702965259552,-0.3263859748840332,9.776495933532715,-0.013010923750698566
10.131139293313026,-5.126726150512695,-1.932349681854248,9.831791877746582,-0.012610272504389286
10.146331492811441,1069.4327392578125,-0.5848388671875,11.010431289672852,-0.01245590765029192
10.153989091515541,-973.1337280273438,0.08648681640625,8.703063011169434,-0.012441850267350674
10.16024549305439,-7.052698612213135,0.6207771301269531,9.826486587524414,-0.012378495186567307
10.169652793556452,-4.490074634552002,-0.3330388069152832,9.783965110778809,-0.012588167563080788
10.184217292815447,1340.8028564453125,-3.1317138671875,11.337788581848145,-0.012451862916350365
10.191613990813494,-1563.5479736328125,3.6190185546875,8.060985565185547,-0.012219410389661789
10.200155492872,-3.5309629440307617,-0.011731386184692383,9.777444839477539,-0.012956378050148487
10.216206792742014,894.3930053710938,-0.039794921875,10.830857276916504,0.005326286889612675
10.222532093524933,-1052.185302734375,3.09228515625,8.631226539611816,0.005187227390706539
10.230933792889118,-4.488980770111084,-0.6541991233825684,9.78525447845459,0.003498220816254616
10.245089791715145,1203.8363037109375,-0.770751953125,11.189237594604492,0.0018634784501045942
10.251825891435146,-1377.9351806640625,-0.3929443359375,8.259346961975098,0.0014254983980208635
10.260978292673826,-4.172944068908691,0.6271145343780518,9.77685260772705,0.000463208241853863
10.26965269446373,-7.370090007781982,-0.34268999099731445,9.832173347473145,6.0922793636564165e-05
10.283046294003725,847.3541870117188,-0.5938720703125,10.752240180969238,-0.0007843064959160984
10.291492391377687,-872.336181640625,0.50787353515625,8.806673049926758,-0.0011924545979127288
10.30568129196763,812.15234375,-0.03460693359375,10.747824668884277,-0.0019072563154622912
10.318058893084526,-663.2134399414062,-0.15826416015625,9.057084083557129,-0.0019794569816440344
10.326204493641853,-6.412126064300537,0.299649715423584,9.814959526062012,-0.002277183346450329
10.332396794110537,-2.569051742553711,-0.648284912109375,9.7749662399292,-0.002483895979821682
10.340236391872168,-8.97523021697998,1.2512483596801758,9.831478118896484,-0.0025618544314056635
10.355638291686773,576.95361328125,-0.6962890625,10.461493492126465,-0.0028446365613490343
10.363180290907621,-600.0159301757812,0.60711669921875,9.096545219421387,-0.0031549776904284954
10.369755692780018,-7.051173210144043,-0.023261547088623047,9.835912704467773,-0.0030712089501321316
10.385018393397331,616.3146362304688,-0.830322265625,10.51169490814209,-0.0033351348247379065
10.394091192632914,-541.4530029296875,-0.2183837890625,9.160577774047852,-0.0035311367828398943
10.400808591395617,-5.771153926849365,-0.01969146728515625,9.839399337768555,-0.003462481778115034
10.415454093366861,634.2334594726562,-0.382080078125,10.533040046691895,-0.003618464106693864
10.424611791968346,-557.1328735351562,-0.33319091796875,9.147095680236816,-0.003816507523879409
10.432052493095398,-6.7311177253723145,-0.02371692657470703,9.83662223815918,-0.0036455709487199783
10.447500292211771,471.3546447753906,-0.883209228515625,10.350037574768066,-0.003927316982299089
10.455899093300104,-456.9735412597656,-0.04205322265625,9.256074905395508,-0.004189863335341215
10.463152091950178,-7.693419456481934,0.6119480133056641,9.839913368225098,-0.0040764217264950275
10.469868492335081,-1.9263620376586914,-1.2872282266616821,9.774616241455078,-0.004301462322473526
10.487505793571472,797.7500610351562,1.0533447265625,10.714799880981445,-0.004484218545258045
10.496627993881702,-706.896484375,0.21807861328125,9.036199569702148,-0.004176762420684099
10.504836693406105,-1.2897382974624634,-0.3250983953475952,9.76071548461914,-0.004821152426302433
10.512823291122913,-8.32855224609375,-0.6721887588500977,9.843254089355469,-0.004561093635857105
10.520012993365526,-0.6509348750114441,-0.0027132630348205566,9.770822525024414,-0.004814065992832184
10.53347809240222,774.4002075195312,-1.428955078125,10.681553840637207,-0.0048722391948103905
10.54087719321251,-780.8271484375,2.65655517578125,8.97456169128418,-0.004613157827407122
10.549645893275738,-2.2495298385620117,-0.329240083694458,9.763693809509277,-0.005228692665696144
10.564478293061256,864.6416015625,-1.58306884765625,11.023083686828613,-0.004668219480663538
10.572216991335154,-989.4560546875,-0.8818359375,8.80994701385498,-0.004422907717525959
10.580574791878462,-26.89177703857422,-0.11204910278320312,9.311108589172363,-0.004307101480662823
10.595238294452429,716.796142578125,-1.45556640625,11.51258659362793,-0.003929931670427322
10.60265439376235,-852.5082397460938,1.49871826171875,8.320807456970215,-0.0037267538718879223
10.61137979105115,-29.135175704956055,-0.4447669982910156,9.679856300354004,-0.0036075583193451166
10.619911693036556,-25.939712524414062,0.20816421508789062,9.867305755615234,-0.0033935331739485264
10.633381392806768,449.9056701660156,-1.2427978515625,11.844686508178711,-0.0030896479729562998
10.641558293253183,-539.8673095703125,0.83843994140625,7.63641881942749,-0.0028842096216976643
10.650859493762255,-28.827312469482422,0.8331737518310547,9.627950668334961,-0.0027250899001955986
10.664862394332886,288.6071472167969,1.267791748046875,11.675990104675293,0.00046180235221982
10.673691891133785,-376.35491943359375,1.868194580078125,7.718297004699707,0.00038108573062345386
10.682832293212414,-27.865718841552734,-0.7621212005615234,9.701940536499023,0.0002869685704354197
10.695784393697977,124.12443542480469,0.5442733764648438,11.078441619873047,0.00022238725796341896
10.704982694238424,-194.5891876220703,-0.212493896484375,8.254993438720703,0.00017998485418502241
10.713331192731857,-26.27490997314453,0.205078125,9.839956283569336,0.00014996010577306151
10.720136892050505,-25.637474060058594,0.5279026031494141,9.906030654907227,0.00011888179142260924
10.735061790794134,50.52085494995117,0.22141265869140625,10.528895378112793,6.332110933726653e-05
10.743435394018888,-121.31243133544922,-0.5309829711914062,8.591818809509277,3.074887354159728e-05
10.750522591173649,-23.08110809326172,0.5391426086425781,9.867517471313477,6.474256224464625e-06
10.765867292881012,-25.001737594604492,0.5306797027587891,9.719176292419434,-2.4150740500772372e-05
10.773979093879461,-0.35850438475608826,0.3186245262622833,9.242316246032715,-1.4967625929784845e-06
10.780729293823242,-0.6793725490570068,-0.002772390842437744,9.849736213684082,-3.970767465943936e-07
10.79631419107318,1.245509386062622,-0.31436485052108765,9.226541519165039,-8.458491720375605e-07
10.80503649264574,-0.6758871078491211,-0.32277441024780273,9.809619903564453,-8.970782801043242e-07
10.810980793088675,-0.6807312369346619,0.6372172236442566,10.152652740478516,-1.2694690667558461e-06
10.825963594019413,0.6081265807151794,0.0028277039527893066,8.991313934326172,-1.2390919437166303e-06
10.834077194333076,-0.3518969416618347,-0.6413687467575073,10.11042594909668,-1.161570253316313e-06
10.840906891971827,1.2495055198669434,-0.6343601942062378,9.98019790649414,-1.3840763131156564e-06
10.856911592185497,0.29316094517707825,-0.3185708820819855,9.100296020507812,-8.310580597026274e-07
10.8659078925848,-0.030215425416827202,2.1668151021003723e-05,10.170014381408691,-7.157141226343811e-07
10.872396994382143,-0.6636672019958496,-1.2827696800231934,10.171860694885254,-1.1518422979861498e-06
10.880164191126823,-0.6666340827941895,-0.0027832388877868652,9.623128890991211,-9.674076864030212e-07
10.896696891635656,0.6143450140953064,0.6428167819976807,9.000078201293945,-7.931121217552572e-07
10.903416492044926,-1.3066356182098389,-0.005584597587585449,10.876988410949707,-8.656788850203156e-07
10.91100649163127,-0.6683744192123413,1.2772045135498047,9.685606956481934,-7.247735993587412e-07
10.926591891795397,1.2612745761871338,-0.3143694996833801,9.32610034942627,-5.0706512411125e-07
10.934787090867758,-0.9838896989822388,0.6358100175857544,10.241003036499023,-4.2077135731233284e-07
10.941494293510914,-0.014294266700744629,-1.2799663543701172,10.033675193786621,-5.1662209443748e-07
10.949708294123411,-0.9809790849685669,0.6358081102371216,9.605330467224121,-3.3625110518187284e-07
10.959931693971157,-0.33948424458503723,0.3186165392398834,10.12335205078125,-4.0446411730954424e-07
10.97336059436202,-0.015328576788306236,1.4815013855695724e-05,9.271550178527832,-3.623026714194566e-07
10.98165189102292,-1.301370620727539,1.2743959426879883,10.018322944641113,-1.629528014746029e-07
10.995757393538952,1.2660043239593506,0.00562286376953125,9.645795822143555,-2.5555709726177156e-07
11.002699792385101,-1.2942417860031128,-0.005591392517089844,10.240748405456543,-1.9577964849304408e-07
11.010172594338655,0.6270126700401306,0.0028194785118103027,9.749124526977539,-1.47095306601841e-07
11.026130191981792,-0.33410948514938354,0.6386069059371948,9.340717315673828,-7.12766450305935e-08
11.033612493425608,-0.6547696590423584,0.637206494808197,10.338703155517578,-6.104892236180604e-08
11.040077190846205,0.6288990378379822,0.0028197765350341797,9.957382202148438,-1.0292478691553697e-07
11.055034093558788,0.6279199123382568,0.6428121328353882,9.098441123962402,-5.381366463552695e-08
11.062190193682909,-0.6529739499092102,0.6372067928314209,10.422969818115234,-4.417051968630403e-08
11.077704094350338,-0.32983502745628357,0.3186102509498596,9.489873886108398,1.6241301636910066e-08
11.085575092583895,-0.331337571144104,0.6386080980300903,10.06760025024414,-3.5706761991605163e-09
11.09273549169302,-0.650854229927063,0.637205958366394,9.918497085571289,3.6691290006274357e-09
11.106196891516447,-0.010109126567840576,0.6400094032287598,9.748002052307129,3.2508751246496104e-09
11.115179993212223,0.6345633268356323,-0.3171776533126831,9.630682945251465,3.6171172723697964e-08
11.124215092509985,0.3119879961013794,0.321414589881897,9.837050437927246,3.543709681252949e-08
11.130788493901491,-0.004033505916595459,-0.6399775147438049,10.180045127868652,2.013882749452023e-08
11.139946691691875,0.3170369267463684,-0.638576865196228,9.442693710327148,2.648368990776362e-08
11.15474759414792,-0.005583407357335091,1.598265953361988e-05,10.002545356750488,3.246134383516619e-08
11.160997994244099,-1.9282031059265137,0.6315982341766357,10.070341110229492,1.949251782207284e-08
11.177119791507721,0.3140116035938263,0.32140877842903137,9.394551277160645,2.2108565644884948e-08
11.18518529087305,-0.32463616132736206,-0.0013912022113800049,9.98846435546875,2.6600787350616883e-08
11.191228590905666,-1.287309169769287,0.6343971490859985,10.085522651672363,-1.110606717702467e-09
11.223331093788147,0.31783607602119446,-0.31858476996421814,9.666096687316895,1.9304309262224706e-08
11.233632691204548,-0.16345368325710297,-0.0006902962923049927,9.980085372924805,-8.455458555545192e-11
11.23939959332347,0.633936882019043,0.6428080797195435,9.725900650024414,2.000518861677847e-09
11.24577909335494,-0.6403129696846008,-0.6427874565124512,9.707012176513672,5.387079227148206e-09
11.25214409455657,1.9225504398345947,-1.2715659141540527,9.803156852722168,5.967592642264208e-09
11.258731294423342,-0.6486349105834961,1.2771943807601929,9.784804344177246,6.515676886920119e-09
11.267488092184067,0.00012093782424926758,-0.6399837732315063,9.503952026367188,7.971721061039716e-09
11.274485893547535,0.6428748369216919,-1.2771732807159424,10.077808380126953,1.0062009891953494e-08
11.280747894197702,0.6402178406715393,-0.6371794939041138,9.905153274536133,5.508198341885873e-09
11.295950192958117,0.32334649562835693,-1.2785756587982178,9.506014823913574,6.192493628986995e-09
11.303803991526365,-0.9650379419326782,0.6357986927032471,9.909610748291016,6.455380230363517e-09
11.311542093753815,0.6406759023666382,-0.6371795535087585,9.836030960083008,6.372019356604142e-09
11.325550593435764,-0.0019602130632847548,1.0538962669670582e-05,9.893111228942871,4.28532587193331e-09
11.336910791695118,-0.6460350751876831,0.9571975469589233,9.930594444274902,1.5724666013738897e-09
11.344343092292547,0.32249927520751953,-0.9585785865783691,9.6333589553833,2.0681056867033476e-09
11.35004909336567,0.6438902616500854,-1.2771731615066528,10.040838241577148,3.1341897965830867e-09
11.364874891936779,-1.9270681142807007,1.271586298942566,9.474578857421875,3.0718965149389987e-09
11.371800493448973,-0.004297852516174316,0.6400045156478882,9.981932640075684,3.4795348824445682e-09
11.386051394045353,1.284177541732788,-1.2743695974349976,9.858926773071289,0.0
11.394340492784977,0.0014292597770690918,-0.6399835348129272,9.701698303222656,-2.5933577063597113e-08
11.400471493601799,0.6413834095001221,-0.6371793150901794,10.096965789794922,-7.710012184247717e-09
11.414861593395472,1.2842974662780762,-1.274369716644287,9.670496940612793,-5.999389429689472e-09
11.423896092921495,0.6401582956314087,-0.3171829879283905,9.522241592407227,-6.0053331196741055e-09
11.438388291746378,0.4801688492298126,-0.3178834021091461,9.98481559753418,-3.194521980276477e-09
11.444802094250917,0.6402180194854736,-0.31718260049819946,9.871562004089355,-1.9763906067282733e-09
11.450046293437481,-1.2811474800109863,-0.0055969953536987305,9.941882133483887,-1.909448599235475e-09
11.464734591543674,0.6417678594589233,-0.6371800303459167,9.431609153747559,-7.528306866788625e-10
11.472136493772268,-0.0038376450538635254,0.6400043964385986,9.852682113647461,-9.71764890778104e-10
11.486839391291142,-0.3265533447265625,1.2785961627960205,9.734046936035156,-1.1145591116701326e-09
11.49541549384594,-0.32090502977371216,-0.0013915300369262695,9.742400169372559,2.7144864134243107e-10
11.502240993082523,0.0047075748443603516,-1.2799770832061768,10.059243202209473,8.429026365774916e-10
11.517007291316986,0.0020092129707336426,-0.6399836540222168,9.62474250793457,-3.91477072980706e-10
11.525518391281366,-0.32217007875442505,0.3186054527759552,9.78316593170166,7.221778730581718e-10
11.533304892480373,-0.0021523237228393555,0.3200075030326843,9.921371459960938,1.0699974239969379e-09
11.540669191628695,-0.6435431241989136,0.6372004747390747,9.855219841003418,6.517346662349155e-10
11.554479092359543,-0.64626145362854,1.2771944999694824,9.912497520446777,2.574829238710663e-10
11.563358291983604,-0.6419988870620728,0.31720322370529175,9.515115737915039,6.6433880618888e-10
11.570286493748426,0.6393812894821167,0.002814650535583496,10.089133262634277,1.34129507500802e-09
11.583789091557264,0.642219603061676,-0.6371794939041138,9.867441177368164,3.1037927783472696e-10
11.591738693416119,0.6394830346107483,0.0028141140937805176,9.591242790222168,6.278071396081941e-10
11.605714492499828,-0.6460962295532227,1.2771944999694824,9.98777961730957,8.330354184238331e-10
11.612921692430973,-0.6404755115509033,-0.0027934908866882324,9.722554206848145,6.619536030427753e-10
11.621440794318914,0.32236915826797485,-0.6385816931724548,9.64771842956543,4.639417738871998e-10
11.635088194161654,0.6423838138580322,-0.6371793150901794,10.092198371887207,5.29705612706266e-10
11.642679393291473,-0.640373945236206,-0.002793550491333008,9.641176223754883,5.336104891284776e-10
11.650629591196775,0.3168289363384247,0.641406238079071,9.766777038574219,6.097686799932944e-10
11.665758892893791,0.002453327178955078,-0.6399834156036377,9.82193374633789,-1.44104950194901e-10
11.672424390912056,-0.6403238773345947,-0.002793252468109131,9.992892265319824,1.8257817480105132e-10
11.680242594331503,0.6396752595901489,0.0028141140937805176,9.649511337280273,-4.340483528153527e-11
11.69512689113617,-0.00309675931930542,0.6400043964385986,9.82169246673584,4.84919882026702e-10
11.702200192958117,-0.6430670619010925,0.637200653553009,9.913710594177246,3.9080960689830135e-11
11.710026994347572,-0.003067493438720703,0.6400042176246643,9.706725120544434,-3.14057668759915e-11
11.72492379322648,-0.6458430290222168,1.2771943807601929,9.855388641357422,2.0376755838213967e-10
11.731249794363976,0.6397654414176941,0.00281447172164917,9.973936080932617,1.3876588766947862e-10
11.74080629274249,-0.6416106820106506,0.3172030746936798,9.380369186401367,-2.457917203102511e-10
11.750770691782236,0.6425995230674744,-0.6371796131134033,9.794048309326172,8.783629379394142e-11
11.762989193201065,-0.6402067542076111,-0.002792656421661377,10.5169677734375,1.3451073588299778e-10
11.771504994481802,-0.64436274766922,0.9571968913078308,9.2772855758667,-3.631267508907854e-11
11.77966459095478,0.32262730598449707,-0.638581395149231,9.869196891784668,2.064920456845698e-11
11.79252079129219,0.0026468634605407715,-0.6399831175804138,10.16325855255127,1.173631192230573e-10
11.800602693110704,-0.00014667169307358563,1.0115290933754295e-05,9.495567321777344,0.0
11.815072491765022,0.6370353698730469,0.6428083777427673,10.011068344116211,-1.2422306516768344e-09
11.822006594389677,-0.005757808685302734,1.2799981832504272,9.716767311096191,-9.462977068608325e-10
11.830487690865993,0.002655625343322754,-0.6399836540222168,9.596857070922852,-8.369407944464058e-10
11.845421493053436,-0.6429305672645569,0.637200653553009,9.976734161376953,-1.6610596231814156e-10
11.852122493088245,0.6370583772659302,0.6428082585334778,9.888059616088867,-6.85327683491721e-10
11.867048393934965,0.6426689624786377,-0.6371797323226929,9.671873092651367,-5.187669183115418e-10
11.875497993081808,-0.6443134546279907,0.957197368144989,9.71199893951416,-3.304303219930915e-10
11.882742494344711,0.6398769617080688,0.00281447172164917,9.97818660736084,-2.188688952298179e-10
11.896598391234875,-0.6429128646850586,0.6372004747390747,9.822662353515625,-5.526110125053663e-10
11.90464749187231,-1.2857087850570679,1.2743903398513794,9.679139137268066,3.725530994813653e-11
11.911045793443918,-9.618121111998335e-05,1.0686799214454368e-05,10.032063484191895,-1.3088380379500109e-10
11.925544694066048,-0.9628871083259583,0.6357983350753784,9.64193058013916,-2.9031410608837405e-10
11.933195091784,0.9627006649971008,-0.6357775926589966,9.805916786193848,2.073140964453657e-10
11.940042693167925,-9.504925401415676e-05,1.0561023373156786e-05,9.913996696472168,-6.573712407753618e-11
11.954281590878963,-1.9256675243377686,1.271586537361145,9.79127311706543,-1.703799601404654e-11
11.96256349235773,-0.3228777050971985,0.6386022567749023,9.626677513122559,-2.3294752238278704e-10
11.975675392895937,-0.6428784728050232,0.6372008323669434,10.113085746765137,4.3191131227082735e-11
11.994227092713118,-0.40075311064720154,0.15825624763965607,9.549328804016113,6.327674495487656e-11
12.001071393489838,0.31993812322616577,0.0014126002788543701,10.042183876037598,-1.1213425327172288e-10
12.00740559399128,1.285537600517273,-1.2743695974349976,9.86088752746582,1.0931844318662343e-10
12.013280291110277,-0.6428554058074951,0.6372005343437195,9.847701072692871,-8.993815414637396e-11
12.019841890782118,1.2855387926101685,-1.2743698358535767,9.696654319763184,9.987166649239043e-11
12.034319691359997,-0.002860426902770996,0.6400042176246643,9.657304763793945,3.260121339554445e-10
12.041150491684675,-1.2828497886657715,0.6343967318534851,9.908964157104492,-1.0859314142352972e-10
12.054509691894054,-1.2856322526931763,1.2743905782699585,9.88866138458252,9.070126594235006e-11
12.064167093485594,-0.961427628993988,0.31580108404159546,9.356846809387207,-2.629048090341257e-10
12.070164691656828,-3.852814916172065e-05,1.1008041838067584e-05,10.333623886108398,4.447572587995552e-10
12.084128193557262,-1.2800240516662598,-0.005597233772277832,9.71351146697998,-9.783077126179762e-11
12.092759493738413,0.6413602828979492,-0.3171829581260681,9.54161262512207,1.6411670633598163e-10
12.10016879439354,0.6427605748176575,-0.637179434299469,9.976971626281738,3.2926994464332893e-10
12.113723192363977,-0.6428350806236267,0.637200653553009,10.003822326660156,-1.70796571330456e-10
12.121057592332363,-1.2800236940383911,-0.005597352981567383,9.615137100219727,1.1632746155232354e-10
12.129636194556952,0.0013813674449920654,-0.31998664140701294,9.650716781616211,6.505310179427681e-11
12.14437349140644,0.6455802917480469,-1.2771732807159424,10.001480102539062,-1.2158629658642894e-10
12.150862593203783,-0.6400150060653687,-0.002793252468109131,9.915050506591797,2.625135386846722e-10
12.168239392340183,0.3199769854545593,0.0014118850231170654,9.361580848693848,8.89058965336531e-11
12.174811393022537,-0.6372119188308716,-0.6427867412567139,10.286199569702148,6.640504118804458e-11
12.181706991046667,-2.077499812003225e-05,1.0387499060016125e-05,9.7510986328125,1.1900951057963738e-10
12.189955592155457,-0.0014224052429199219,0.32000717520713806,9.623419761657715,-4.646256990259445e-11
12.206025093793869,0.6427768468856812,-0.6371796131134033,9.811332702636719,1.7979111255339575e-11
12.212792493402958,-2.108985063387081e-05,1.0544927135924809e-05,9.898880004882812,0.0
12.220502592623234,-0.6428183913230896,0.6372003555297852,9.702689170837402,-7.817791553010878e-11
12.23547189310193,-0.0028246641159057617,0.6400042772293091,9.774706840515137,1.4228557221329652e-10
12.241855591535568,0.00558626651763916,-1.2799769639968872,10.072471618652344,-2.5342486442703205e-10
12.250433593988419,0.6441794633865356,-0.9571768641471863,9.520577430725098,1.629248125301075e-11
12.26541419327259,0.6427766680717468,-0.6371795535087585,9.893412590026855,6.902407118092313e-11
12.27161929383874,0.6399723291397095,0.002814650535583496,10.132467269897461,-2.123637377060561e-11
12.2807253934443,0.3241826891899109,-0.9585788249969482,9.424247741699219,7.75257462393153e-12
12.294864293187857,-2.1709667635150254e-05,1.0854834727069829e-05,10.189802169799805,6.104159538944387e-11
12.302235692739487,-2.0632556697819382e-05,1.0316278348909691e-05,9.68424129486084,-9.529665945251509e-11
12.310248292982578,-2.072344250336755e-05,1.0361722161178477e-05,9.726900100708008,6.032031818481443e-11
12.323375191539526,0.6427977681159973,-0.6371792554855347,10.119523048400879,-5.065833863504565e-11
12.329980492591858,0.0028038620948791504,-0.639983594417572,9.65231704711914,-7.168889093467357e-11
12.346521094441414,-0.32139888405799866,0.31860512495040894,9.484624862670898,4.9604462898367174e-11
12.354270491749048,-0.3199969232082367,-0.0013912618160247803,10.011982917785645,-5.378850836956772e-11
12.360955093055964,0.0028038620948791504,-0.6399832963943481,9.946797370910645,1.7657658668568388e-10
12.376183394342661,4.547473508864641e-13,1.0316663065168541e-05,9.684602737426758,-1.4773168799386838e-10
12.38278429210186,-0.6427977085113525,0.6372005939483643,9.940262794494629,2.996821107242864e-12
12.397248193621635,0.32420265674591064,-0.9585785865783691,9.679300308227539,5.2193051963689285e-11
12.405516792088747,-0.9627946615219116,0.635798454284668,9.725412368774414,-7.198336371416758e-11
12.411958392709494,0.002803802490234375,-0.6399831771850586,10.061182022094727,-8.38155864157919e-11
12.427022192627192,-1.281389832496643,0.31439948081970215,9.619470596313477,6.658468915121674e-12
12.434287492185831,0.6427976489067078,-0.6371794939041138,9.890885353088379,1.3582378277643414e-10
12.440443690866232,0.6427977085113525,-0.637179434299469,9.948922157287598,-1.744909772227743e-10
12.45691479369998,-0.32139888405799866,0.3186050355434418,9.399653434753418,-4.164187050736956e-11
12.465120792388916,0.6413958072662354,-0.31718242168426514,9.97953987121582,-7.261685176784827e-12
12.471832294017076,0.0,1.0665784429875202e-05,10.012334823608398,1.0102265551870104e-10
12.486490093171597,-0.32280075550079346,0.6386023163795471,9.713615417480469,-1.8066574625219545e-10
12.494199894368649,0.9655983448028564,-1.2757716178894043,9.760711669921875,2.67434907552655e-10
12.50219489261508,-0.32280081510543823,0.6386024355888367,9.786298751831055,-7.776457949804083e-11
12.516665291041136,0.32280075550079346,-0.6385815143585205,9.789215087890625,1.3996270809002453e-10
12.525240793824196,4.547473508864641e-13,1.0404622116766404e-05,9.767172813415527,1.6669395030977086e-10
12.531497593969107,0.6427977681159973,-0.6371792554855347,10.126387596130371,-2.696164957960434e-10
12.545725893229246,-0.31719309091567993,-0.641385555267334,9.644500732421875,6.03525909803615e-11
12.553833894431591,-0.0014019310474395752,0.3200072944164276,9.727473258972168,9.690865471201349e-11
12.561492193490267,0.3199969232082367,0.001412421464920044,9.874068260192871,-2.23984775171715e-10
12.575566191226244,0.6413958072662354,-0.31718260049819946,9.87236499786377,-7.314916727896303e-11
12.58330249413848,-0.6427977085113525,0.6372004151344299,9.72298812866211,5.297558572370242e-11
12.59640409424901,-0.002803802490234375,0.6400046348571777,10.080901145935059,5.146134907096922e-11
12.603943090885878,-0.6399939060211182,-0.0027936697006225586,9.535400390625,1.0380904469364793e-10
12.610795393586159,0.6456016302108765,-1.2771732807159424,9.905167579650879,-1.1841200242557193e-10
12.624137591570616,1.285595417022705,-1.274369716644287,9.787837982177734,0.0
12.631427992135286,0.0028038620948791504,-0.639983594417572,9.627178192138672,-2.4423234268322602e-11
12.646839492022991,-0.9655985832214355,1.2757923603057861,9.65483570098877,-1.6599227548041995e-10
12.654242191463709,-0.005607724189758301,1.2799983024597168,9.99735164642334,1.591211745699539e-10
12.661527894437313,4.547473508864641e-13,1.047652040142566e-05,9.83466625213623,-1.3814279581358946e-11
12.675751693546772,-0.6456016302108765,1.2771944999694824,9.797279357910156,2.0030023473172065e-10
12.6826247908175,0.0028038620948791504,-0.6399833559989929,9.900405883789062,-5.235940500614156e-11
12.697874691337347,-0.004205763339996338,0.9600010514259338,9.603399276733398,3.102589296588576e-10
12.706287894397974,0.3199969530105591,0.001412421464920044,9.8504056930542,-1.1671928701328937e-10
12.712166592478752,0.005607724189758301,-1.2799769639968872,10.160619735717773,-1.0135674938238637e-10
12.727499693632126,0.0014019012451171875,-0.31998685002326965,9.485318183898926,-7.769276194613539e-11
12.735822793096304,-0.3213988244533539,0.3186054825782776,9.83392333984375,3.352618183072309e-10
12.74212359264493,0.6399939060211182,0.0028145909309387207,10.089143753051758,-1.929031379077628e-10
12.757981993258,-0.9670003652572632,1.5957889556884766,9.448954582214355,-2.6108332162877446e-10
12.766561791300774,-0.6399938464164734,-0.0027933120727539062,9.905611038208008,4.1290232344337596e-10
12.772637091577053,0.6427978277206421,-0.6371791958808899,10.152408599853516,-2.689373446163046e-10
12.787544392049313,-0.004205763339996338,0.9600010514259338,9.586153030395508,-1.5521040008792397e-10
12.796715091913939,0.0,1.0266639947076328e-05,9.63764476776123,1.9031089204535334e-10
12.803494591265917,4.547473508864641e-13,1.0810583262355067e-05,10.148262023925781,-7.042465222095728e-11
12.809709791094065,0.6399939060211182,0.002814352512359619,9.866182327270508,7.940577362308687e-11
12.824897892773151,-0.0028038620948791504,0.6400041580200195,9.643445014953613,4.204530612561541e-10
12.831225093454123,0.0028038620948791504,-0.6399832963943481,9.935341835021973,-4.284279042643391e-10
12.846425794064999,-0.3213988244533539,0.3186052441596985,9.583462715148926,-1.921792724957072e-10
12.854324594140053,0.32139885425567627,-0.31858453154563904,9.847166061401367,8.213289423575354e-12
12.861942291259766,-0.9684025049209595,1.9157862663269043,9.809992790222168,-2.5725443997259845e-10
12.875457592308521,-0.32280075550079346,0.638602614402771,10.001864433288574,1.1627022955540411e-10
12.88380329310894,-0.3185950219631195,-0.32138869166374207,9.545649528503418,-1.0243009912480616e-10
12.890057891607285,0.6427977681159973,-0.6371793150901794,10.090235710144043,-6.670471195801414e-14
12.905056294053793,-0.6413958072662354,0.31720325350761414,9.548972129821777,1.9727905420374725e-10
12.913681890815496,4.547473508864641e-13,1.0410805771243758e-05,9.772976875305176,-7.832919729500176e-11
12.920493490993977,0.0,1.0718642442952842e-05,10.0619535446167,1.8484762331905102e-11
12.934347793459892,0.002803802490234375,-0.6399834752082825,9.808316230773926,2.0851365079010975e-10
12.943155091255903,0.0014019012451171875,-0.3199867606163025,9.545808792114258,-1.3777268215164895e-10
12.95054229348898,0.6427977085113525,-0.6371793746948242,10.015137672424316,5.871487324116131e-11
12.966445494443178,-0.0014019310474395752,0.32000717520713806,9.6046781539917,-2.5376586249015176e-11
12.973508793860674,0.6399939060211182,0.0028145313262939453,10.075498580932617,1.791420310703895e-11
12.98919179290533,-0.3199969530105591,-0.0013915300369262695,9.735928535461426,-3.085432603855409e-11
12.997925691306591,-0.32280075550079346,0.6386023163795471,9.731908798217773,-3.652356889149999e-11
13.003877192735672,-0.6427977085113525,0.6372008919715881,10.188464164733887,2.3485324796013174e-10
13.009827591478825,0.6399938464164734,0.0028142333030700684,9.782051086425781,-1.403877847305779e-10
13.022671893239021,0.0028038620948791504,-0.6399833559989929,9.896265029907227,2.561524048427799e-10
13.031250294297934,-0.31719306111335754,-0.6413857936859131,9.356361389160156,-3.156489791766859e-10
13.045223593711853,-0.6399938464164734,-0.0027930140495300293,10.155508041381836,1.8023245396125986e-10
13.051975592970848,0.6399938464164734,0.002814173698425293,9.71478271484375,-3.0854346855235804e-10
13.059676893055439,1.285595417022705,-1.274369716644287,9.674713134765625,8.022706110555333e-11
13.076449193060398,0.6399939060211182,0.0028139352798461914,9.507168769836426,-6.194440793638734e-11
13.081884194165468,0.6427977681159973,-0.6371787786483765,10.523106575012207,-1.718253317406493e-11
13.09806029126048,0.32139885425567627,-0.318585067987442,9.375110626220703,4.943226036835391e-11
13.105040393769741,0.6427977085113525,-0.6371793746948242,10.038177490234375,1.4162690985253246e-11
13.11129079386592,-1.931196928024292,2.551574468612671,9.892879486083984,3.038302031840856e-12
13.124608092010021,0.6399938464164734,0.0028142333030700684,9.785608291625977,-1.877755312351681e-10
13.133451391011477,0.6427976489067078,-0.637179970741272,9.488504409790039,1.542846822522037e-10
13.141444094479084,0.0,1.0586547432467341e-05,9.937952041625977,-1.7493209658603348e-10
13.154966693371534,0.965598464012146,-1.2757713794708252,9.990363121032715,1.413437838992948e-10
13.16438439115882,4.547473508864641e-13,1.0064458365377504e-05,9.44784927368164,-1.6562487492599587e-10
13.172119591385126,-0.3199969232082367,-0.0013912320137023926,10.049924850463867,1.7075089953078049e-10
13.18446009233594,-0.6399938464164734,-0.002792954444885254,10.25229549407959,4.143466819650499e-11
13.19336949288845,0.6456015110015869,-1.2771742343902588,9.210675239562988,2.27370358651946e-10
13.205524191260338,4.547473508864641e-13,1.1046550753235351e-05,10.369772911071777,7.2205592199781066e-12
13.213107891380787,4.547473508864641e-13,1.0018802640843205e-05,9.404991149902344,-1.251481696051826e-10
13.220219992101192,-0.0028038620948791504,0.6400043964385986,9.842849731445312,1.9133922224412458e-10
13.23008069396019,0.0014019310474395752,-0.31998687982559204,9.463826179504395,5.663333690897332e-11
13.243069890886545,-0.6399939060211182,-0.0027927160263061523,10.433643341064453,8.529223161080068e-11
13.25168989226222,-0.3185950219631195,-0.3213889002799988,9.352327346801758,1.2158929418859543e-10
13.266348592936993,-0.6427977681159973,0.6372007727622986,10.051252365112305,-1.1987342542207902e-11
13.272041693329811,0.6484055519104004,-1.917167067527771,9.956023216247559,-1.957700061089307e-12
13.286798793822527,-1.2827916145324707,0.6343963742256165,9.57091999053955,-2.2236613939075056e-10
13.293721091002226,0.0,1.0511258551559877e-05,9.867276191711426,2.093716727769035e-10
13.300058092921972,-1.285595417022705,1.2743905782699585,9.876459121704102,-1.1007383893257838e-10
13.314169194549322,0.002803802490234375,-0.6399835348129272,9.714641571044922,-1.6440461492184255e-10
13.324965193867683,0.32280081510543823,-0.6385813355445862,9.936172485351562,4.010945395260812e-11
13.331340193748474,-0.6456016302108765,1.2771942615509033,9.699422836303711,-1.6017703829973584e-10
13.345216494053602,0.0,1.0346942872274667e-05,9.713027954101562,3.284393312874556e-10
13.35251409187913,0.0028038620948791504,-0.6399834752082825,9.778493881225586,-9.940745449021904e-11
13.3653274923563,-1.285595417022705,1.274390697479248,9.954206466674805,8.291203140720071e-11
13.372776292264462,-0.0028038620948791504,0.6400041580200195,9.648886680603027,-2.665256904066382e-10
13.380900792777538,-0.3199969232082367,-0.001391589641571045,9.71948528289795,3.3392108522711794e-10
13.394499491900206,-1.2827916145324707,0.6343969106674194,10.030411720275879,-2.968724988061666e-10
13.401433993130922,0.6399938464164734,0.0028142333030700684,9.749306678771973,2.1797182114813296e-10
13.410437691956758,0.6427977085113525,-0.6371799111366272,9.550023078918457,1.3011944820229271e-11
13.424644991755486,-0.005607724189758301,1.279998540878296,10.110462188720703,8.978026655448446e-11
13.431724291294813,0.6399939060211182,0.0028142929077148438,9.794370651245117,-9.841688575207286e-11
13.440136890858412,-0.3199969530105591,-0.0013916492462158203,9.635278701782227,-1.0511291143044943e-10
13.455065991729498,-1.9227854013442993,0.6315934658050537,10.443047523498535,1.0608012385171506e-10
13.461688194423914,-0.6427977681159973,0.6372002959251404,9.631537437438965,-1.5348451676278074e-10
13.477532792836428,0.6427977681159973,-0.6371797919273376,9.629734992980957,1.279970990308854e-10
13.485190894454718,0.32280075550079346,-0.6385815143585205,9.80431079864502,-1.8829855730206901e-10
13.491695892065763,-1.285595417022705,1.274390697479248,9.943556785583496,1.2384337999549189e-10
13.506779093295336,-0.0028038620948791504,0.6400040984153748,9.594854354858398,-1.9456122823946487e-10
13.514875292778015,0.32280075550079346,-0.6385815143585205,9.79035758972168,1.8310519767084088e-10
13.5224893912673,-0.3199969530105591,-0.0013914108276367188,9.869414329528809,-2.763148876372412e-10
13.535170491784811,-0.6399939060211182,-0.00279313325881958,10.072664260864258,-2.1820906193070755e-10
13.543107192963362,-0.00560760498046875,1.2799978256225586,9.454991340637207,3.011836613442398e-11
13.550043892115355,0.0028038620948791504,-0.6399832963943481,9.94036865234375,1.4310271023720844e-10
13.562824092805386,4.547473508864641e-13,1.0626295079418924e-05,9.975264549255371,-1.4037321305337969e-10
13.572657991200686,-0.32280075550079346,0.6386018395423889,9.247220993041992,4.6128403180523136e-11
13.580793891102076,0.6427977681159973,-0.6371793150901794,10.072731018066406,1.675076570506473e-11
13.592767391353846,-0.6427977085113525,0.6372008919715881,10.1727876663208,-9.51888845523996e-11
13.600942593067884,-0.6399939060211182,-0.0027938485145568848,9.40924072265625,-1.3409141852438466e-10
13.615142792463303,-0.6456015110015869,1.2771944999694824,9.976949691772461,1.755421780158528e-10
13.622054994106293,4.547473508864641e-13,1.0450356967339758e-05,9.810105323791504,-6.959016696228559e-11
13.63071509078145,0.32280075550079346,-0.6385817527770996,9.575404167175293,-1.3922890618189854e-10
13.639725591987371,-0.6413958072662354,0.31720349192619324,9.782992362976074,2.7602340552101978e-11
13.652605693787336,4.547473508864641e-13,1.0886301424761768e-05,10.219341278076172,3.253030830818737e-11
13.66074639186263,-0.9599907994270325,-0.004195690155029297,9.501697540283203,6.590875761824933e-11
13.675846293568611,-0.6456016302108765,1.2771944999694824,9.866337776184082,-6.549649711473648e-11
13.681928291916847,-0.6371901035308838,-0.6427870392799377,10.048590660095215,-1.0414701046013164e-10
13.699163790792227,-0.3199969232082367,-0.001391381025314331,9.889111518859863,1.443610647688942e-10
13.707073591649532,-0.6413958072662354,0.31720322370529175,9.503854751586914,-1.3008176480422406e-10
13.713123191148043,1.2827916145324707,-0.6343755722045898,10.063629150390625,3.7946434189306544e-11
13.726843293756247,0.6427977681159973,-0.6371797919273376,9.628089904785156,-9.677610796066105e-11
13.735476091504097,-0.3185950219631195,-0.3213885724544525,9.656814575195312,3.406079931989048e-11
13.741546593606472,-1.2855956554412842,1.2743908166885376,10.169652938842773,-1.4412775140026923e-10
13.755603291094303,4.547473508864641e-13,1.0258347174385563e-05,9.62985897064209,2.2073011821110988e-11
13.76587899401784,4.547473508864641e-13,1.0657384336809628e-05,10.004449844360352,-2.5815018525610078e-11
13.774076294153929,0.0,1.0123204447154421e-05,9.502996444702148,1.1309300718131965e-10
13.780547890812159,0.6456016302108765,-1.2771731615066528,10.054617881774902,-4.229810252054378e-11
13.79599429294467,-0.6456015110015869,1.2771940231323242,9.53447437286377,-6.877124564264037e-11
13.80260169133544,4.547473508864641e-13,1.0738147466327064e-05,10.0802640914917,6.156276877167244e-11
13.815236292779446,-0.6399939060211182,-0.0027933120727539062,9.87017822265625,1.5536466557719564e-10
13.823203891515732,0.3199969530105591,0.001412123441696167,9.57229995727539,-7.037331134496227e-11
13.829972092062235,-0.0028038620948791504,0.6400045156478882,9.965810775756836,2.4141461399396213e-11
13.8435477912426,0.6456015110015869,-1.2771735191345215,9.816109657287598,1.413892197765776e-10
13.850336991250515,0.0,1.0419403224659618e-05,9.781047821044922,3.7230229316120855e-11
13.86556289345026,-0.6456015110015869,1.2771944999694824,10.003908157348633,2.2960137263661196e-11
13.873524893075228,-0.6399938464164734,-0.002793610095977783,9.6314115524292,-4.194147112945856e-11
13.886883292347193,0.32280075550079346,-0.6385812759399414,10.03856086730957,1.1482203382540135e-10
13.895943492650986,-0.32139885425567627,0.31860506534576416,9.416311264038086,-1.5015048232536188e-11
13.902461592108011,-0.6399938464164734,-0.0027930140495300293,10.162688255310059,-8.231097747835037e-11
13.915868993848562,0.0028038620948791504,-0.6399833559989929,9.845752716064453,-1.3966834633283298e-11
13.923306193202734,-0.6456015110015869,1.2771942615509033,9.60490894317627,-8.867825918024153e-11
13.933061391115189,0.6413958072662354,-0.3171829879283905,9.507037162780762,1.1322253551382389e-10
13.945300694555044,0.6427977085113525,-0.6371789574623108,10.421910285949707,2.5601999686930554e-11
13.953851491212845,0.9599907398223877,0.0042157769203186035,9.341096878051758,-1.2372981979258402e-11
13.962584894150496,0.6413958072662354,-0.31718266010284424,9.799637794494629,1.7559342868622707e-11
13.969671692699194,-0.6456016302108765,1.2771947383880615,10.041120529174805,-9.049613836076276e-11
13.983071193099022,-1.2827916145324707,0.6343968510627747,9.952042579650879,-5.7834039640658474e-11
13.991815991699696,-0.3185950219631195,-0.3213888108730316,9.422674179077148,-3.942806844903224e-11
14.000427294522524,0.0014019012451171875,-0.3199864625930786,9.845745086669922,3.208034532464765e-11
14.013341393321753,0.0,1.0930971257039346e-05,10.261274337768555,1.1371543984228794e-10
14.020150393247604,-0.005607724189758301,1.2799980640411377,9.55445384979248,8.847796106881134e-11
14.030849691480398,0.3199969232082367,0.0014124810695648193,9.923577308654785,1.539030014541254e-10
14.042844392359257,0.6427977085113525,-0.6371796131134033,9.816854476928711,5.328927923931026e-11
14.05670079216361,-0.0028038620948791504,0.64000403881073,9.507844924926758,-3.5201890014047166e-11
14.065616492182016,0.0,1.0214276699116454e-05,9.588489532470703,-1.7585538580888738e-10
14.074333991855383,-0.3242027163505554,0.958599328994751,9.865888595581055,2.585955338751944e-10
14.081178691238165,0.6427977681159973,-0.6371793150901794,10.078343391418457,-7.68293276220966e-11
14.095687191933393,-0.6427977085113525,0.6372003555297852,9.709288597106934,-2.784181392379015e-11
14.103601392358541,0.3185950219631195,0.3214092254638672,9.76831340789795,3.628018024892654e-11
14.111869592219591,0.3199969530105591,0.0014123022556304932,9.773164749145508,1.0991050951314474e-11
14.123950190842152,0.6399938464164734,0.002814769744873047,10.223249435424805,-2.8672593813117153e-11
14.13219429180026,-0.32280081510543823,0.6386020183563232,9.38304615020752,-8.937316164914222e-12
14.14262779429555,0.3242027163505554,-0.9585781097412109,10.09859848022461,-3.227608111333602e-11
14.159027893096209,0.0014019310474395752,-0.3199869692325592,9.36850643157959,-3.5127175473936845e-11
14.166001193225384,0.9627946615219116,-0.6357772350311279,10.197811126708984,7.216503089546578e-11
14.173334792256355,1.285595417022705,-1.274369716644287,9.754179000854492,-3.409188556457998e-11
14.184999693185091,0.637190043926239,0.6428084969520569,10.182870864868164,-4.151689408926629e-11
14.192354891449213,-0.00560760498046875,1.2799978256225586,9.397601127624512,-1.3167103692091064e-11
14.200940892100334,0.32139885425567627,-0.31858474016189575,9.653667449951172,-5.962302179751688e-11
14.214772794395685,0.0028038620948791504,-0.6399831175804138,10.089162826538086,3.092140432592316e-11
14.220640692859888,0.6427976489067078,-0.6371794939041138,9.884400367736816,-9.215871121792674e-11
14.236525293439627,-0.9613927006721497,0.315801203250885,9.417594909667969,-5.0900793996389027e-11
14.244242791086435,-0.6413958072662354,0.31720373034477234,9.971479415893555,6.682149191611364e-12
14.250492591410875,-0.002803802490234375,0.640004575252533,10.00629711151123,2.6556175661274217e-11
14.264368291944265,-1.2799878120422363,-0.005597472190856934,9.670159339904785,-2.7098719102003344e-11
14.27254719287157,0.32280075550079346,-0.6385815143585205,9.813519477844238,0.0
14.280019294470549,-0.9655983448028564,1.2757924795150757,9.886979103088379,-2.27694148258184e-11
14.293263491243124,-0.6399939060211182,-0.00279313325881958,10.045427322387695,2.7979358413476874e-11
14.301104191690683,1.9255892038345337,-1.2715660333633423,9.478190422058105,-3.6561881994190415e-11
14.31006659194827,0.9613927602767944,-0.3157808780670166,9.663814544677734,9.56468064472471e-12
14.32396049425006,-0.0028038620948791504,0.6400047540664673,10.201951026916504,-1.3226516236419794e-11
14.329944092780352,-1.2827916145324707,0.6343966722488403,9.775336265563965,1.279116812469283e-10
14.346676792949438,4.547473508864641e-13,9.964873243006878e-06,9.354365348815918,4.133037662112926e-11
14.353434391319752,4.547473508864641e-13,1.0820775059983134e-05,10.157830238342285,1.4063476945491704e-11
14.35988699272275,-0.005607724189758301,1.2799983024597168,9.832977294921875,3.113373708146794e-12
14.375466290861368,0.0,1.016277110466035e-05,9.540139198303223,3.7622666483952405e-13
14.381767891347408,-0.002803802490234375,0.6400046348571777,10.096142768859863,-2.423019597463938e-11
14.395110592246056,0.6399939060211182,0.0028142929077148438,9.829317092895508,1.2228395379620949e-11
14.40223779156804,0.6427977681159973,-0.6371797919273376,9.625487327575684,-4.2050640747248735e-11
14.410245291888714,-0.32280075550079346,0.6386023163795471,9.712418556213379,-1.2864709297844001e-11
14.424456793814898,-0.6371899843215942,-0.6427871584892273,9.945635795593262,-1.0350362927846746e-11
14.430208291858435,-0.637190043926239,-0.6427870988845825,9.959259033203125,-2.753435153490802e-11
14.447211291640997,0.0,9.850433343672194e-06,9.246936798095703,-1.073767377096635e-11
14.453491494059563,-0.002803802490234375,0.6400048732757568,10.323147773742676,-2.7928888368666804e-11
14.463195491582155,-0.0014019012451171875,0.3200069069862366,9.354106903076172,1.1654757887946676e-11
14.470935493707657,-0.6413958072662354,0.31720390915870667,10.11422348022461,3.834968800853211e-12
14.487450391054153,0.0,1.0289610145264305e-05,9.659207344055176,-3.55496743154049e-11
14.493701092898846,-0.6456016302108765,1.2771947383880615,10.169772148132324,1.1278646419587979e-11
14.499721691012383,-0.6456016302108765,1.2771944999694824,9.815912246704102,2.8131703563860633e-11
14.512725491076708,1.9227855205535889,-0.6315717697143555,9.83420467376709,1.1709644538726582e-11
14.522523991763592,0.6427978277206421,-0.6371801495552063,9.284806251525879,4.224075603187494e-11
14.534953091293573,0.0028038620948791504,-0.6399827003479004,10.47088623046875,2.9442427662562665e-11
14.541815392673016,0.6399939060211182,0.0028139352798461914,9.501375198364258,-3.587379351910336e-11
14.55028099194169,0.6441996097564697,-0.9571767449378967,9.593734741210938,-1.0750102197309985e-11
14.565152194350958,0.6399939060211182,0.002814352512359619,9.869179725646973,-1.2179463167172333e-11
14.571366392076015,0.6456015110015869,-1.2771730422973633,10.124396324157715,-3.6784837328940334e-12
14.57989889383316,0.6427976489067078,-0.637179970741272,9.492059707641602,2.0439519868298284e-11
14.594727493822575,0.6456015110015869,-1.2771735191345215,9.794733047485352,3.599363515571774e-11
14.60118779167533,-0.6456016302108765,1.277194857597351,10.206732749938965,-5.869804642344434e-11
14.616146493703127,0.0,1.0274941814714111e-05,9.645437240600586,9.711223145081327e-12
14.624677192419767,-1.2827916145324707,0.634396493434906,9.69826602935791,4.4932037257527924e-11
14.629935391247272,0.6427977085113525,-0.6371791362762451,10.254693984985352,-8.741117552002464e-11
14.645037490874529,-0.6427977085113525,0.637200117111206,9.472357749938965,-9.526007066495978e-11
14.65453639253974,0.0,1.0209244464931544e-05,9.583765029907227,6.657190770864574e-11
14.661196693778038,0.6427977085113525,-0.6371791362762451,10.216495513916016,-5.955261977996784e-11
14.673740591853857,0.0,1.0627749361447059e-05,9.976629257202148,-7.66821051101374e-11
14.684258792549372,0.9627946615219116,-0.6357779502868652,9.548640251159668,1.292665002816662e-10
14.691885493695736,-0.3199969530105591,-0.0013916492462158203,9.623103141784668,-8.172638954473399e-11
14.70509409159422,0.32280075550079346,-0.6385815143585205,9.809293746948242,-1.833202166456882e-11
14.713276393711567,-0.0014019310474395752,0.3200073540210724,9.792126655578613,-2.5413945947683203e-10
14.72508629411459,0.6399938464164734,0.002814769744873047,10.204448699951172,-4.149192794900003e-11
14.732492692768574,0.6427977085113525,-0.6371799111366272,9.544039726257324,1.570256008553983e-10
14.740964692085981,0.9627946019172668,-0.6357777714729309,9.690594673156738,-7.291612452720031e-11
14.754419591277838,-0.6427977085113525,0.6372007727622986,10.102968215942383,2.2448015668530275e-10
14.761182192713022,-0.6399939060211182,-0.002793431282043457,9.778642654418945,-1.1400943383810258e-10
14.777534890919924,0.6441996693611145,-0.9571768641471863,9.507974624633789,-1.8525021794335572e-10
14.783927392214537,1.2855955362319946,-1.274369239807129,10.212630271911621,1.997294517275261e-11
14.790939591825008,-1.9255894422531128,1.2715866565704346,9.722049713134766,-1.4968810913007502e-11
14.804713893681765,0.31579118967056274,0.9614031314849854,9.769674301147461,-3.021643005252095e-11
14.814031094312668,-0.0014019012451171875,0.3200071454048157,9.578010559082031,3.044838339794076e-11
14.82050509378314,-0.6399939060211182,-0.002792954444885254,10.21979808807373,9.799007438804352e-11
14.834177691489458,-1.2855955362319946,1.2743905782699585,9.803398132324219,-1.5920223472853934e-10
14.842129293829203,0.0,1.0241256859444547e-05,9.613816261291504,4.906896416967399e-11
14.85485589131713,-0.6399939060211182,-0.002792954444885254,10.197836875915527,2.3714415847697623e-11
14.861425790935755,-0.6484055519104004,1.9171879291534424,9.574324607849121,-4.1516266119367984e-11
14.870234593749046,-0.0028038620948791504,0.64000403881073,9.513145446777344,-1.3147154198644984e-10
14.885058093816042,0.32280075550079346,-0.6385812759399414,10.034881591796875,-3.4977977545619376e-12
14.891310393810272,-0.0028038620948791504,0.6400044560432434,9.94451904296875,1.7811772889952948e-10
14.906840290874243,0.0,1.0172345355385914e-05,9.549126625061035,-2.153714359631742e-11
14.91333769261837,0.002803802490234375,-0.6399832367897034,10.034805297851562,-1.3570355950065505e-10
14.925705593079329,-1.285595417022705,1.274390697479248,10.012401580810547,-3.3217359418635795e-11
14.934090491384268,1.2827916145324707,-0.6343762874603271,9.345462799072266,2.3081293820670368e-10
14.943441092967987,0.0,1.0336220839235466e-05,9.702961921691895,-2.099961038393161e-10
14.949929293245077,-0.6399939060211182,-0.002792954444885254,10.218826293945312,3.7113905698715755e-11
14.964883390814066,-0.31719309091567993,-0.641385555267334,9.627345085144043,-9.315499760464974e-11
14.972742691636086,0.002803802490234375,-0.6399834752082825,9.821714401245117,1.3668092699314904e-11
14.980241890996695,0.6456015110015869,-1.2771735191345215,9.849085807800293,-1.0103450021059501e-10
14.993128091096878,1.2827916145324707,-0.6343753933906555,10.084440231323242,-4.561925837087699e-11
15.003056094050407,-0.3185950219631195,-0.32138901948928833,9.227561950683594,-1.2777604495306516e-11
15.009662192314863,0.6427977085113525,-0.6371791362762451,10.289969444274902,-1.3741772997288848e-10
15.021671891212463,-0.005607724189758301,1.279998540878296,10.169241905212402,-1.482097916616354e-10
15.038311392068863,-0.32139885425567627,0.3186047375202179,9.110095977783203,-8.84008213852816e-11
15.044779192656279,-0.6427977085113525,0.6372008919715881,10.194589614868164,1.3687756483804492e-10
15.051111791282892,0.0,1.044803957483964e-05,9.807929992675781,-3.565381670456169e-11
15.065112393349409,0.002803802490234375,-0.6399834752082825,9.738675117492676,3.3429314871824545e-11
15.074384793639183,0.3199969530105591,0.001412034034729004,9.496753692626953,-1.2311357662497802e-11
15.082160692662,0.3185950219631195,0.32140955328941345,10.024287223815918,-1.0724888338531358e-10
15.095038693398237,1.285595417022705,-1.274369716644287,9.832222938537598,4.3482310308796956e-13
15.102849293500185,1.285595417022705,-1.274369716644287,9.630125999450684,-2.2334165766801917e-11
15.110741592943668,0.0,1.046297802531626e-05,9.821953773498535,5.974248179496655e-11
15.12330349162221,0.002803802490234375,-0.6399831175804138,10.129167556762695,6.671014001619069e-12
15.130482394248247,0.0,1.0220529475191142e-05,9.594358444213867,2.759719969908092e-12
15.148093793541193,-0.6427977681159973,0.6372000575065613,9.417421340942383,-2.5250536037080273e-11
15.153435293585062,-0.637190043926239,-0.6427865624427795,10.551642417907715,7.725454997942194e-11
15.15969929099083,-0.0028038620948791504,0.6400041580200195,9.66788101196289,-8.066748657942213e-12
15.174482993781567,0.6399938464164734,0.002814054489135742,9.565718650817871,-3.0261779193629934e-11
15.182509694248438,0.00560760498046875,-1.2799773216247559,9.802309036254883,3.530439829368959e-11
15.195136491209269,-0.0028038620948791504,0.6400047540664673,10.188069343566895,7.365413834392598e-11
15.202552191913128,-1.285595417022705,1.2743902206420898,9.490878105163574,-4.412160567457413e-11
15.210016291588545,-1.9227855205535889,0.6315927505493164,9.809992790222168,8.626144069878716e-12
15.223426394164562,0.6399939060211182,0.0028145313262939453,10.017912864685059,-6.257398765807665e-11
15.230305291712284,0.0,1.0294364074070472e-05,9.66366958618164,-5.7367027794796854e-11
15.246001191437244,1.2827916145324707,-0.634376049041748,9.56782341003418,4.9499271868869155e-12
15.252437490969896,0.0,1.0803267286974005e-05,10.14139461517334,-4.662963765111883e-11
15.267408892512321,0.0028038620948791504,-0.639983594417572,9.649748802185059,-4.849374374282789e-11
15.275552492588758,0.0,1.038876325765159e-05,9.752285957336426,7.825627298951865e-12
15.283300191164017,-0.3199969232082367,-0.0013914108276367188,9.88604736328125,-1.9280318661052398e-11
15.295300591737032,0.6371899843215942,0.6428085565567017,10.198700904846191,5.293732466271628e-11
15.303683992475271,0.0028038620948791504,-0.6399839520454407,9.306463241577148,-2.7400578334058068e-11
15.310760792344809,0.0,1.0650268450262956e-05,9.997769355773926,-5.83374668017278e-11
15.324379991739988,0.6399939060211182,0.0028144121170043945,9.941404342651367,-5.4129770110655784e-11
15.331451993435621,0.6399938464164734,0.002814173698425293,9.6572265625,2.850700057954736e-11
15.346081390976906,-0.6427976489067078,0.6372004747390747,9.784513473510742,-4.365921860149946e-11
15.353839293122292,-1.2827916145324707,0.634396493434906,9.742216110229492,-1.2746867797397421e-11
15.36194709315896,-0.32280075550079346,0.6386023759841919,9.771406173706055,1.9914566523615562e-11
15.376199793070555,-0.637190043926239,-0.6427870988845825,9.992940902709961,-7.415119213094457e-11
15.382608391344547,-0.6427977681159973,0.6372005343437195,9.84154987335205,7.109652450099091e-11
15.389910094439983,4.547473508864641e-13,1.0294842468283605e-05,9.664118766784668,-6.9444561212606e-11
15.40465359389782,-0.9613927602767944,0.31580156087875366,9.796698570251465,3.914112089997701e-11
15.411817692220211,0.0028038620948791504,-0.6399833559989929,9.86093521118164,5.112477823900063e-13
15.42452459409833,-0.6427977681159973,0.6372007727622986,10.054457664489746,1.8035940796412575e-11
15.432649191468954,-0.32560455799102783,1.2785959243774414,9.421346664428711,-1.5729601648972746e-11
15.4410583935678,-0.0014019310474395752,0.3200073540210724,9.787725448608398,-3.8471361513137126e-12
15.454845692962408,0.6427977681159973,-0.6371793150901794,10.110230445861816,-2.494038482681038e-11
15.462331093847752,-0.6427977681159973,0.6372002959251404,9.64195728302002,-7.880326599596366e-12
15.470757693052292,-0.6441996097564697,0.9571972489356995,9.679692268371582,6.329854002062874e-11
15.482562191784382,4.547473508864641e-13,1.1041034667869098e-05,10.364595413208008,-8.603696921571924e-11
15.498680792748928,-0.32560455799102783,1.2785959243774414,9.464570999145508,0.0
15.506731390953064,0.32139885425567627,-0.31858447194099426,9.898061752319336,-1.4939020073073683e-12
15.513486493378878,0.0028038620948791504,-0.6399832367897034,9.959038734436035,-2.192842261938832e-12
15.525912292301655,0.0,1.0696508979890496e-05,10.041176795959473,1.1573658698083023e-10
15.534278493374586,0.6427978277206421,-0.6371801495552063,9.297562599182129,-2.077769206687563e-10
15.542254094034433,-0.3199969530105591,-0.0013914108276367188,9.858161926269531,5.600558905527464e-11
15.5544223934412,-0.6456016302108765,1.2771949768066406,10.29335880279541,1.031428414899338e-10
15.562569092959166,-0.6399938464164734,-0.002794027328491211,9.23877239227295,7.735096591021673e-11
15.574478290975094,-0.6371901035308838,-0.6427868008613586,10.281681060791016,-9.811799289716205e-11
15.58145809173584,0.0028038620948791504,-0.6399838328361511,9.418013572692871,2.038557100902949e-10
15.59790139272809,-0.9613927602767944,0.3158012628555298,9.51668930053711,-2.0142792989119584e-10
15.605076793581247,-0.6456016302108765,1.2771947383880615,10.088695526123047,1.6401179026015456e-10
15.610223591327667,0.6399939060211182,0.0028145313262939453,10.06519603729248,1.0662457028409733e-10
15.622996293008327,0.6399939060211182,0.002814173698425293,9.71445369720459,1.04150097834238e-12
15.631793692708015,0.6413958072662354,-0.31718310713768005,9.397010803222656,-4.3153730588940675e-11
15.64497959241271,1.2827916145324707,-0.6343753337860107,10.177328109741211,4.786022619884811e-11
15.651791892945766,-1.285595417022705,1.2743903398513794,9.691254615783691,-9.505686168753691e-12
15.659997094422579,-0.3199969530105591,-0.0013916492462158203,9.62243938446045,3.6559606036989933e-11
15.67416749149561,1.2827916145324707,-0.634375810623169,9.742316246032715,-1.2366235813132676e-10
15.680656794458628,-1.2855955362319946,1.2743909358978271,10.200765609741211,-7.017934844366636e-11
15.695744290947914,0.0,1.0194384230999276e-05,9.569814682006836,1.1144105777072255e-10
15.70373459160328,0.6413958072662354,-0.31718260049819946,9.858843803405762,-2.107741203793978e-10
15.715969990938902,0.0028038620948791504,-0.639983057975769,10.1505765914917,-1.2483199196555717e-10
15.724907591938972,-0.9641966223716736,0.9557949900627136,9.337692260742188,1.751580130937569e-10
15.732034891843796,0.0,1.0714587006077636e-05,10.058147430419922,-6.827996501534983e-11
15.744757793843746,-0.0028038620948791504,0.640004575252533,10.0570707321167,4.910843433292289e-12
15.753114491701126,0.32280081510543823,-0.6385819315910339,9.40272331237793,-4.140898041127272e-11
15.762501493096352,0.0014019310474395752,-0.31998661160469055,9.693889617919922,-1.2653096626014104e-10
15.7752968929708,-0.6399939060211182,-0.002792835235595703,10.31818675994873,1.1858714010770655e-10
15.781804293394089,0.0,1.028356928145513e-05,9.653535842895508,6.217334980185285e-11
15.789744593203068,0.637190043926239,0.6428079605102539,9.611757278442383,-1.8368313814409731e-10
15.800115291029215,4.547473508864641e-13,1.072342820407357e-05,10.066447257995605,-3.94921144397653e-11
15.812485091388226,0.0028038620948791504,-0.6399834752082825,9.770703315734863,1.50756823691367e-10
15.82811839133501,-0.6399939060211182,-0.0027938485145568848,9.319351196289062,-7.030589999068582e-11
15.835797391831875,0.3199969232082367,0.0014126002788543701,10.030745506286621,1.6119428014604864e-10
15.841066993772984,-1.2827916145324707,0.6343969106674194,10.130189895629883,-9.74116273755321e-11
15.854689691215754,0.002803802490234375,-0.6399837136268616,9.593189239501953,-4.6944840376150765e-11
15.863146591931581,0.3199969530105591,0.001412123441696167,9.600601196289062,1.0681088652431114e-10
15.870923291891813,-0.6441997289657593,0.9571974873542786,9.919853210449219,-4.2518218112963524e-11
15.884282290935516,0.0,1.0686402674764395e-05,10.031689643859863,3.6302086336981176e-11
15.891184493899345,0.002803802490234375,-0.6399835348129272,9.694158554077148,-3.459474373634919e-11
15.899610992521048,-0.6413958072662354,0.3172033429145813,9.609071731567383,3.028966660822974e-11
15.912406791001558,-1.2799878120422363,-0.005597233772277832,9.908102989196777,2.1551574760914072e-11
15.925582490861416,0.637190043926239,0.6428081393241882,9.792677879333496,-1.339103272712805e-10
15.934909991919994,-0.6413958072662354,0.31720322370529175,9.531798362731934,1.2633886992130527e-10
15.941538393497467,0.6399938464164734,0.002814769744873047,10.212244033813477,1.0431011089606645e-11
15.953712090849876,-0.6399939060211182,-0.0027931928634643555,9.975693702697754,3.3167833063396657e-11
15.961766891181469,-0.0028038620948791504,0.6400039792060852,9.457913398742676,1.1107739728011268e-11
15.970113392919302,0.3199969530105591,0.0014123618602752686,9.794051170349121,-3.9239281962588635e-11
15.982607893645763,0.6427977085113525,-0.6371791362762451,10.197249412536621,4.153316579547095e-12
15.99756159260869,0.6441996693611145,-0.9571768641471863,9.45219612121582,7.293786343127995e-13
16.0059428922832,-0.3242027163505554,0.958599328994751,9.821808815002441,2.2077445774315585e-11
16.012293092906475,-0.6427977085113525,0.6372007727622986,10.094921112060547,-6.424785009562228e-11
16.026980090886354,-0.3185950219631195,-0.3213886022567749,9.586411476135254,2.8186101456301182e-12
16.03558759391308,0.3199969232082367,0.0014123022556304932,9.761472702026367,5.3486218926090956e-11
16.04149279370904,-0.6399938464164734,-0.0027930140495300293,10.184685707092285,-4.092610972339372e-11
16.05561239272356,1.9283933639526367,-1.9115597009658813,9.650836944580078,-6.19969006687704e-11
16.06492029130459,-0.6399939060211182,-0.0027936697006225586,9.533650398254395,2.4019047167866958e-11
16.07150909304619,-0.0028038620948791504,0.6400047540664673,10.199212074279785,3.2167424973694736e-11
16.08370189368725,-0.0028038620948791504,0.640004575252533,10.029824256896973,-2.002535984257925e-11
16.091399893164635,-0.0028038620948791504,0.6400039196014404,9.415185928344727,-2.784137330402725e-11
16.101826291531324,0.9641967415809631,-0.9557743072509766,10.03582763671875,6.709717503827761e-11
16.114674292504787,-0.6427976489067078,0.6372004747390747,9.754220962524414,8.434386869482502e-12
16.12126189097762,1.285595417022705,-1.274369716644287,9.656461715698242,-2.038937942094865e-11
16.13609789311886,1.9283932447433472,-1.9115599393844604,9.629526138305664,-3.5906940615282323e-11
16.142980594187975,1.2827916145324707,-0.6343755722045898,9.954967498779297,3.603519566075519e-11
16.155026894062757,1.2827916145324707,-0.6343755722045898,10.001603126525879,4.427572891652076e-11
16.162940591573715,-0.637190043926239,-0.6427876353263855,9.471841812133789,4.337399796966457e-12
16.17306599393487,-0.32280075550079346,0.6386027336120605,10.080911636352539,-6.782423234152901e-11
16.185754291713238,-0.0028038620948791504,0.6400042176246643,9.690817832946777,1.6325703289243876e-10
16.193788692355156,-0.6456015110015869,1.2771942615509033,9.578124046325684,-2.1965940177892662e-10
16.201466292142868,0.6456016302108765,-1.2771732807159424,9.874423027038574,5.351993501157004e-11
16.21375849097967,0.6399939060211182,0.002814650535583496,10.1329984664917,1.2612411115497935e-11
16.22082919254899,-0.002803802490234375,0.64000403881073,9.55242919921875,-1.4903499268026366e-10
16.229602593928576,-0.6441996097564697,0.9571972489356995,9.594423294067383,1.4875937981440046e-10
16.242863591760397,1.2799878120422363,0.005618572235107422,10.196184158325195,6.412067404815147e-11
16.258642591536045,-0.9670003652572632,1.5957889556884766,9.4257173538208,4.4740718074809394e-11
16.265434194356203,0.0028038620948791504,-0.6399831175804138,10.125715255737305,-5.401619776468358e-11
16.271947093307972,-0.637190043926239,-0.6427871584892273,9.838409423828125,6.9038754747785536e-12
16.284986291080713,0.0028038620948791504,-0.6399833559989929,9.844655990600586,2.437837952340427e-11
16.294706292450428,0.0014019310474395752,-0.3199869692325592,9.363659858703613,-1.2144966456129058e-11
16.301247891038656,0.002803802490234375,-0.6399829983711243,10.274365425109863,-1.6102454092337126e-10
16.31322279199958,4.547473508864641e-13,1.0507637853152119e-05,9.863877296447754,0.0
16.320234693586826,-0.6399939060211182,-0.002793729305267334,9.482749938964844,-8.848935581680373e-13
16.335508193820715,-0.6427977085113525,0.637200117111206,9.439447402954102,-2.5344457088571914e-10
16.341815892606974,0.005607724189758301,-1.279976725578308,10.375905990600586,2.3106269675388091e-10
16.356623992323875,0.32280075550079346,-0.6385817527770996,9.556522369384766,-9.608618761758336e-11
16.36418129131198,0.32280081510543823,-0.6385813355445862,9.939923286437988,-1.3803888587737845e-10
16.3706437908113,-1.2827916145324707,0.6343968510627747,9.96465015411377,8.684233193667623e-11
16.38412319123745,-0.6427976489067078,0.6372004747390747,9.785575866699219,1.658813642002599e-10
16.393330991268158,0.0014019310474395752,-0.31998682022094727,9.496321678161621,-8.775855736553595e-11
16.40001069381833,-0.0028038620948791504,0.6400047540664673,10.179221153259277,-9.238077317008653e-12
16.41254609450698,-1.2827916145324707,0.6343969106674194,10.007987976074219,-9.080171337050302e-11
16.427975192666054,0.0014019310474395752,-0.3199869394302368,9.384602546691895,1.0109867110141835e-10
16.43499729409814,0.002803802490234375,-0.6399832367897034,10.022305488586426,-3.118526825662826e-10
16.441792894154787,0.6427977681159973,-0.6371795535087585,9.835980415344238,1.9669157969026685e-10
16.455188993364573,-0.3199969530105591,-0.0013914704322814941,9.800826072692871,8.267982826160036e-11
16.463143292814493,0.3199969530105591,0.0014122426509857178,9.671294212341309,-2.973241097770085e-11
16.4696663916111,-0.002803802490234375,0.640004575252533,10.0068359375,-1.9049566091222658e-10
16.483003791421652,-0.6427977681159973,0.6372005343437195,9.896293640136719,-3.2445335307329515e-10
16.49065499380231,-0.6456015110015869,1.2771942615509033,9.558732032775879,2.2973405122694857e-10
16.50536009296775,-0.6427977681159973,0.6372005343437195,9.869604110717773,1.2296649809506732e-10
16.511262394487858,-0.6399939060211182,-0.0027931928634643555,9.988252639770508,-6.609656572065248e-11
16.525862891227007,-0.6399938464164734,-0.002793610095977783,9.60764217376709,2.0078955165203638e-10
16.532739993184805,1.2883994579315186,-1.9143635034561157,9.886244773864746,-3.972661435924785e-11
16.53978019207716,-0.6456016302108765,1.2771943807601929,9.771586418151855,-1.233214641516156e-10
16.552595291286707,-0.637190043926239,-0.6427870988845825,9.967157363891602,-8.346342714182775e-12
16.565008893609047,-0.48139727115631104,0.31790444254875183,9.752384185791016,2.2369538166255865e-10
16.572540793567896,0.002803802490234375,-0.6399835348129272,9.681929588317871,-5.017798676565377e-11
16.58365459367633,-0.002803802490234375,0.6400048136711121,10.226773262023926,-1.6360858501318631e-10
16.591106791049242,1.2799878120422363,0.005617618560791016,9.38144588470459,7.310162891682737e-11
16.60578839108348,0.0028038620948791504,-0.6399834752082825,9.788542747497559,-3.0131057371374226e-11
16.61210649088025,1.2827916145324707,-0.6343755722045898,10.00193977355957,-5.816225973065414e-11
16.625947292894125,0.6399939060211182,0.002814173698425293,9.682100296020508,1.713913316825355e-10
16.633329391479492,0.0,1.0442754501127638e-05,9.802968978881836,-7.014109432157412e-11
16.639688793569803,0.6399939060211182,0.0028144121170043945,9.948423385620117,-1.3290545053390446e-10
16.652388092130423,-0.0028038620948791504,0.6400043964385986,9.869365692138672,-1.4682845217439677e-10
16.66041699424386,-0.3199969530105591,-0.001391768455505371,9.52453899383545,1.346297517912376e-10
16.675277791917324,-0.0028038620948791504,0.6400043964385986,9.850341796875,-7.850163574740776e-11
16.681514892727137,0.6399939060211182,0.0028145313262939453,10.054155349731445,8.031168091671148e-11
16.69024009257555,0.965598464012146,-1.2757718563079834,9.479549407958984,-1.2453077458118855e-10
16.706254493445158,0.6399939060211182,0.0028142929077148438,9.817798614501953,-1.9117207816776727e-11
16.712529592216015,0.6427977085113525,-0.6371791362762451,10.222384452819824,1.7291331561031242e-11
16.72782039269805,-0.32139885425567627,0.3186053931713104,9.733474731445312,0.0
16.735944893211126,0.3199969530105591,0.0014123618602752686,9.794121742248535,3.3929575728869343e-13
16.74214619398117,-0.6456016302108765,1.2771947383880615,10.052997589111328,-4.0242418772318267e-13
16.755128491669893,-0.9599907994270325,-0.004195451736450195,9.713560104370117,-3.413032703680763e-11
16.762428492307663,-0.0028038620948791504,0.6400042176246643,9.715625762939453,-1.2018709812100514e-11
16.777133490890265,0.0,1.045367207552772e-05,9.813218116760254,-8.068963899821036e-12
16.785432390868664,0.6441996097564697,-0.957176685333252,9.651702880859375,-2.3574803567627534e-11
16.792985893785954,4.547473508864641e-13,1.0558927897363901e-05,9.91202449798584,5.92199275728511e-11
16.80004409328103,0.6456015110015869,-1.2771735191345215,9.866915702819824,-2.721390994497863e-11
16.813015591353178,0.0028038620948791504,-0.6399832367897034,10.012432098388672,-1.0024017206566871e-11
16.820827390998602,-1.2827916145324707,0.6343963742256165,9.466141700744629,6.400495411451601e-11
16.829911191016436,0.3213988244533539,-0.31858476996421814,9.64813232421875,-6.885099435027797e-11
16.844138391315937,-0.0028038620948791504,0.6400046944618225,10.165002822875977,-5.5873045773369157e-11
16.85143819078803,4.547473508864641e-13,1.0324731192667969e-05,9.69217586517334,5.0847319410518566e-11
16.85961999371648,-0.6413958072662354,0.3172033727169037,9.690016746520996,-4.874384923470032e-11
16.871697191148996,0.6399938464164734,0.002814769744873047,10.229172706604004,1.3503623219612848e-10
16.886249892413616,0.6427976489067078,-0.637179970741272,9.467799186706543,-5.1713867563196736e-12
16.896806593984365,0.6427977085113525,-0.6371793746948242,9.976370811462402,-5.4091287005064714e-11
16.903976291418076,-0.32139888405799866,0.31860530376434326,9.61561107635498,5.917282722839312e-12
16.909673891961575,-0.002803802490234375,0.640004575252533,10.001445770263672,1.4377979059079782e-12
16.925836592912674,-0.6427976489067078,0.6371999979019165,9.335272789001465,-1.998777705847221e-11
16.934487391263247,0.3199969232082367,0.0014124810695648193,9.912835121154785,3.586678523626041e-11
16.946682892739773,0.0,1.0834903150680475e-05,10.17109203338623,1.9264258591111805e-11
16.955654494464397,-0.32280081510543823,0.6386020183563232,9.410383224487305,-1.50011756488988e-11
16.96178039163351,0.6427977085113525,-0.6371791362762451,10.214774131774902,-1.383380493491515e-10
16.974173791706562,-1.9283932447433472,1.9115804433822632,9.930281639099121,-4.788348537121401e-11
16.981298092752695,-1.2827916145324707,0.6343963742256165,9.527824401855469,5.786895268533598e-12
16.99026759341359,0.0028038620948791504,-0.6399837136268616,9.558425903320312,2.749618675107479e-12
17.002827893942595,-4.547473508864641e-13,1.0964627108478453e-05,10.292868614196777,-1.581083874935274e-11
17.01995689421892,-0.0014019310474395752,0.3200073540210724,9.805932998657227,-1.0258406103746953e-11
17.027629394084215,0.32139888405799866,-0.3185848593711853,9.534756660461426,-2.985424190846131e-12
17.03374359384179,0.002803802490234375,-0.6399832367897034,10.023681640625,-2.5205899867319914e-11
17.046323992311954,0.637190043926239,0.6428081393241882,9.775289535522461,-2.5480220364193507e-11
17.055440992116928,-0.32420265674591064,0.9585989713668823,9.45634937286377,-7.0212355894605505e-12
17.063388593494892,-0.6413958072662354,0.31720373034477234,9.998849868774414,-5.142261963464456e-11
17.075483690947294,4.547473508864641e-13,1.0832805855898187e-05,10.169123649597168,-1.7600748636326102e-10
17.083997692912817,0.0,9.983587005990557e-06,9.371932029724121,1.174877833909349e-10
17.091253891587257,-0.002803802490234375,0.640004575252533,10.004331588745117,6.207333952401584e-11
17.103912092745304,-0.0028038620948791504,0.640004575252533,10.020615577697754,1.2437979465818039e-11
17.11190329119563,0.002803802490234375,-0.6399838328361511,9.476919174194336,5.914477241297789e-12
17.121760491281748,0.6413958072662354,-0.31718286871910095,9.583203315734863,-6.112835931881833e-13
